time,seconds_elapsed,z,y,x
1731517649795228200,0.048228271484375,-0.48331250900924205,0.4031482544481754,-0.0554160361431539
1731517649805276200,0.058276123046875,-0.6284124693393707,0.2673512522533536,0.09523220596387982
1731517649815323100,0.0683232421875,-0.3393780853271484,0.48874184058159587,0.09211809253133833
1731517649825371400,0.078371337890625,0.028413024535775183,1.0139826892599464,0.6282661196712405
1731517649835418000,0.088418212890625,0.5242442388564348,1.405466517138481,1.1370426672175526
1731517649845466000,0.098466064453125,0.4492939195513725,1.4003615952149033,1.795477495985478
1731517649855513300,0.108513427734375,-0.09165303230285644,1.3652560873031616,2.4220932911664246
1731517649865561600,0.1185615234375,-0.6840256354898214,1.4040209945052862,2.428510172471404
1731517649875608300,0.1286083984375,-0.5183171868950128,1.6389549550175666,1.7757039972402153
1731517649885656300,0.13865625,-0.12626549600064754,1.7648899038895964,0.9338405004002154
1731517649895703300,0.148703369140625,-0.173214294180274,1.542634223164618,1.1618446616493165
1731517649905751600,0.15875146484375,0.19192367082536219,0.9346978478819131,1.8125518187746406
1731517649915798500,0.168798583984375,0.9947545494377612,0.465296667586267,2.3404634940974414
1731517649925845500,0.178845458984375,1.7138988445818424,0.09300327786803245,2.5575208755269645
1731517649935893200,0.188893310546875,1.261049862897396,-0.25316402920782566,2.784245226098597
1731517649945940500,0.1989404296875,0.2580038704544306,-0.19130232405662537,2.2635542958095667
1731517649955988500,0.208988525390625,-0.4141548016309738,0.45887247975766654,1.5016056088142096
1731517649966035500,0.219035400390625,-0.45216801368296144,1.0703893438756464,1.1363461363207548
1731517649976083500,0.22908349609375,0.5089940627545118,1.1834411380380392,0.6892010653663426
1731517649986130400,0.23913037109375,1.2920242623537779,0.9067080171942711,-0.12624914765404538
1731517649996178400,0.249178466796875,1.8269179055184124,0.5416752661287785,-1.2457293980382382
1731517650006225400,0.259225341796875,1.9208879825919865,-0.42524025926887987,-0.9719281659279018
1731517650016273400,0.2692734375,1.6517998235434292,-0.9347796809464692,-0.9163287360418587
1731517650026320400,0.2793203125,1.3960223969668148,-0.7293956400454044,-1.1959018295519053
1731517650036368400,0.289368408203125,1.1590654061943293,-0.305538359567523,-1.2322145212963223
1731517650046415400,0.299415283203125,0.7566226696670055,-0.049455812564492226,-0.7530625660326331
1731517650056463400,0.30946337890625,-0.04401099116206169,0.17012801860272883,-0.576637931503728
1731517650066510300,0.31951025390625,-0.6618827772647142,0.14635960500240325,-0.8664744256790727
1731517650076558300,0.329558349609375,-0.6028256081402301,0.0397930812060833,-1.005817356852442
1731517650086605300,0.339605224609375,-0.32419103758931156,-0.09698913263380526,-1.8269173209965228
1731517650096653600,0.349653564453125,-0.496274281913042,-0.6392021589010953,-2.1757731365039943
1731517650106700500,0.359700439453125,-0.4010679410427809,-0.8023895645856857,-1.5649673432648181
1731517650116748300,0.369748291015625,-0.10484978300631045,-0.3542348781973123,-0.9219907073263078
1731517650126795300,0.379795166015625,0.0998287399739027,0.10079437013566493,-0.4956306502472609
1731517650136843500,0.389843505859375,0.5913742397993803,0.3815039933949709,0.0455279715962708
1731517650146890500,0.399890380859375,1.692513526725769,0.522236990687251,0.23706658862680197
1731517650156938200,0.409938232421875,2.1269898163735865,0.07509352716803551,-0.279347979517281
1731517650166985500,0.4199853515625,1.155438447868824,-0.8360247076839208,-1.0607833111405371
1731517650177033500,0.430033447265625,-0.05867080015540123,-1.3217898705422877,-1.6356557673417031
1731517650187080400,0.44008056640625,-0.6900953107923269,-1.2470306898951529,-2.0605603649154305
1731517650197128200,0.450128173828125,-0.5344517446160316,-0.9739689510405063,-2.270708697608858
1731517650207175400,0.460175537109375,0.061228083422780036,-0.7230991702497005,-2.5643191573649644
1731517650217223400,0.470223388671875,0.46224634010493754,-0.7507213366687298,-2.785061510917544
1731517650227270400,0.4802705078125,0.3243149562299251,-0.9334621686071157,-2.2036516157716513
1731517650237318400,0.490318359375,0.24375147321820256,-0.7594505865693092,-0.6692953916087746
1731517650247365400,0.500365478515625,0.6204185479760169,-0.18794892197549343,0.8309514960728586
1731517650257413400,0.510413330078125,0.9778449156910181,0.16668343110680578,1.453145383158326
1731517650267460400,0.52046044921875,1.041838956695795,0.20784137092530727,1.034913760542497
1731517650277508600,0.530508544921875,1.4838018027067184,0.11606441998183727,0.8573713009648024
1731517650287555600,0.5405556640625,1.9499211848527191,0.10710311489105225,0.6379005017179995
1731517650297603300,0.550603271484375,1.68865100607872,-0.054503743603825566,0.2550931706395
1731517650307650300,0.560650390625,0.8087257818698883,-0.38361177932918067,-0.0686889208227396
1731517650317698600,0.570698486328125,0.46498014898300166,-0.5006535199105739,-0.3278489755749702
1731517650327745500,0.58074560546875,0.41878713760673997,-0.2894423802912235,-0.49907896407023067
1731517650337793300,0.590793212890625,-0.26727088049352166,-0.09082125765383244,-0.12420578699186444
1731517650347840300,0.60084033203125,-1.0570189901709557,0.05236030183434486,0.4351371647093445
1731517650357888500,0.610888427734375,-1.6846727500975132,0.1382575470894575,0.5622118582010269
1731517650367935500,0.620935546875,-1.9640397265762088,0.16639350824952123,0.8679905293304473
1731517650377983200,0.630983154296875,-1.852142947667837,0.30693828949332236,1.2591262013584374
1731517650388030200,0.6410302734375,-1.3641273755341767,0.3683843995809555,0.9692940910972654
1731517650398078500,0.651078369140625,-0.8674889364838599,0.07312310387790202,0.41281515052504836
1731517650408125400,0.66112548828125,-0.3350637292593717,-0.3834533738970756,-0.1312365624114871
1731517650418173400,0.67117333984375,0.09632336220145225,-0.5666600697815418,-0.5115069223582744
1731517650428220400,0.681220458984375,0.32991701402068135,-0.5744453168302774,-0.6073550682634115
1731517650438268400,0.691268310546875,-0.008175707671046256,-0.4943208097577095,-0.6492134114362299
1731517650448315400,0.7013154296875,-2.0583353823423383,-0.23197920235991476,-1.0795908874630928
1731517650458363400,0.71136328125,-3.0287539474248883,-0.1714718344271183,-0.19707725419625638
1731517650468410400,0.721410400390625,-1.944449475443363,0.011460136169195174,1.4511224990285931
1731517650478458400,0.731458251953125,-0.8890659775197506,0.6123164900630712,1.9554022466123102
1731517650488505300,0.74150537109375,0.08454173899292945,1.1367477759242057,1.851952978053689
1731517650498553600,0.7515537109375,1.2923399041742085,1.0232534986913204,1.7053392521597444
1731517650508600600,0.7616005859375,2.13291453024745,0.41766836270987984,1.1297240147672594
1731517650518647600,0.7716474609375,2.399798457249999,0.03305179025232792,0.339769568862766
1731517650528695300,0.7816953125,2.2195944503128526,0.13734510841965675,0.029598142667114732
1731517650538742300,0.7917421875,0.9201929371893406,0.5000964705497026,-0.4235622430540621
1731517650548790500,0.80179052734375,-0.46869069393873214,0.49354631825387474,-0.4461404239565134
1731517650558837500,0.81183740234375,-0.01180500408411026,-0.12011632572114467,0.17453589817285536
1731517650568885200,0.82188525390625,0.9626274728149176,-0.6307160701066256,0.10026435491219163
1731517650578932200,0.83193212890625,1.264015142443776,-0.6526157672256231,-0.5665848125882447
1731517650588980500,0.84198046875,0.530422635230422,-0.6447738215535879,-1.4194628937870264
1731517650599027500,0.85202734375,-1.2359054847687483,-0.7356184600830078,-1.4062966843523084
1731517650609075200,0.8620751953125,-2.7940654861062764,-0.3605810323536396,-0.16798896074742078
1731517650619122400,0.872122314453125,-2.9663474678725,0.7181213818371296,1.668815694143623
1731517650629170400,0.88217041015625,-2.3338316548675295,1.4692361017376183,2.3888249355539677
1731517650639217400,0.892217529296875,-1.535280061009526,1.2702636814445256,1.7230637094207106
1731517650649265400,0.902265380859375,-0.79109835524261,0.29717268228232857,0.561139260533452
1731517650659312400,0.9123125,0.2763800696223974,-0.6585702917158603,-0.5845921784438193
1731517650669360400,0.9223603515625,1.398069977146387,-1.2098223644852637,-1.5744441966623066
1731517650679407400,0.932407470703125,1.6774638416320085,-1.3832190294951199,-1.5125488815024495
1731517650689455600,0.94245556640625,1.570712024396658,-1.129607841041684,-0.8030439368411898
1731517650699502600,0.952502685546875,1.4395540801793336,-0.44420331841409205,0.17881839779764414
1731517650709550300,0.96255029296875,0.45900808883607386,0.2990653641611338,0.7926417852923273
1731517650719597300,0.972597412109375,-1.4434949267596004,0.3605091361612081,0.8413887189351021
1731517650729645600,0.9826455078125,-3.0500054097682234,0.15450374849140644,0.4321541303105652
1731517650739692500,0.992692626953125,-2.8913509713381527,-0.05458557666838169,-0.3395521267198026
1731517650749740300,1.002740234375,-2.8028263001888987,-0.18601824617385862,-1.0634624672219157
1731517650759787300,1.012787353515625,-0.5998802023380995,-1.155598606866598,-1.0634463928699494
1731517650769835500,1.02283544921875,3.5431051532983777,-1.3918383892804382,-0.7088869588933885
1731517650779882500,1.032882568359375,1.7859300615698097,-0.4123848693490028,-1.2684402654096483
1731517650789930200,1.04293017578125,0.35563422360122204,-0.26070143897533415,-0.7237282619334757
1731517650799977200,1.052977294921875,-0.3434381743729114,0.12399872011244296,0.1635658836081624
1731517650810025500,1.063025390625,0.036544308543205256,0.6739660137683153,1.1322792522080243
1731517650820072400,1.073072509765625,0.3584633095473051,0.9528700489103794,0.8721643809489905
1731517650830120400,1.083120361328125,0.16164952859282491,0.7265040102571249,0.502443910458684
1731517650840167200,1.093167236328125,0.4599433238595724,-0.1691051052957773,0.12184519534036517
1731517650850215400,1.10321533203125,1.2547060468286275,-0.3998100499361753,-0.6291745397530496
1731517650860262400,1.113262451171875,1.775664688143134,-0.16132511894404888,-1.5196958306476473
1731517650870310100,1.12331005859375,0.898274535369873,0.07547638900578021,-1.2150887605808676
1731517650880357000,1.133357177734375,-0.20540449916720388,0.5911293251276016,0.7583679058991372
1731517650890404000,1.143404052734375,-0.5760018986225128,0.5660106659621,1.3938549897998571
1731517650900452000,1.1534521484375,-0.43129298343658445,0.27081483671069145,0.8661154561735689
1731517650910499000,1.1634990234375,-0.22144027268886565,0.9175462220728396,0.8424173313304781
1731517650920547000,1.173547119140625,0.05254208814203739,0.7910182757437229,0.5108487507104873
1731517650930594000,1.183593994140625,0.37247313019931316,-0.18824936622679234,-0.629041268762201
1731517650940642000,1.19364208984375,0.8462567633628845,-0.3734159640073776,-0.9825685832120478
1731517650950689000,1.20368896484375,1.7004828981697557,-0.2946247513651848,-0.7767062572747468
1731517650960737000,1.213737060546875,1.816957652518153,-0.825309836924076,-0.9765218503937124
1731517650970784000,1.223783935546875,1.262774786993861,-0.9569061725586652,-0.7909906570844352
1731517650980832000,1.23383203125,0.7866752781033516,-0.6220318283915519,-0.5408750556617975
1731517650990879000,1.24387890625,0.7420733353108168,-0.4791150573194027,-0.677422291702032
1731517651000927000,1.253927001953125,1.2252204246252774,-0.6462304501026869,-0.9006317660205065
1731517651010974000,1.263973876953125,1.792041237926483,-1.0304337655842304,-1.284847502592206
1731517651021022200,1.274022216796875,2.472244684779644,-1.3487135333031415,-1.6933672209456563
1731517651031069000,1.28406884765625,2.8987556946367024,-1.584428999581933,-2.022767956007272
1731517651041117000,1.294116943359375,2.986407674604654,-1.5192676683634518,-2.5620944670528174
1731517651051164000,1.304163818359375,2.8329075501978394,-1.3864572807639837,-2.384562163542956
1731517651061212200,1.314212158203125,1.8251070567041634,-1.0931401048660279,-1.519783801192045
1731517651071259100,1.324259033203125,0.5983598609030246,-0.45936464718878267,-0.5815061951272189
1731517651081307000,1.334306884765625,-0.19195172787606715,0.15777414846420287,0.15226736774146557
1731517651091354000,1.34435400390625,-0.43168753571212287,0.49685354310572144,0.3994137440949678
1731517651101402000,1.354402099609375,-0.8943418720960616,0.44831279955953357,-0.2570760880850255
1731517651111449000,1.364448974609375,-1.3026298275202512,0.12451163807064294,-0.9838723592869937
1731517651121496800,1.374496826171875,-1.439213888439536,-0.18574089053720236,-1.3720204668715594
1731517651131544000,1.3845439453125,-1.1145511416852474,-0.13048808213174343,-1.830515491618961
1731517651141592000,1.394592041015625,-0.43089083237648007,0.21552987960129974,-1.680950953095406
1731517651151639000,1.40463916015625,0.17166531117260456,0.5424193624943494,-1.6619398170247672
1731517651161687000,1.41468701171875,0.6906611279815436,0.6189870538681745,-1.9326215288750825
1731517651171734000,1.424734130859375,1.222255729600787,0.16599457205981016,-1.8144662740938364
1731517651181781000,1.434781005859375,1.8166864343613385,-0.36421938885599375,-1.4374888182125984
1731517651191829000,1.4448291015625,2.3388749097317456,-0.7223094811767339,-0.6002477935414761
1731517651201876000,1.4548759765625,2.656951263833046,-0.6457394517153501,0.5215031234547496
1731517651211924000,1.464924072265625,2.899234418064356,-0.29707857425808903,1.1388705402318386
1731517651221971000,1.474970947265625,2.8733395138293503,0.1256894496783614,1.2173574361652135
1731517651232019000,1.48501904296875,2.6287638647466895,0.3111702279746532,1.045483158417046
1731517651242066000,1.49506591796875,2.3092320511400697,0.30958149747848507,0.4515932825349271
1731517651252114200,1.5051142578125,1.8543389964073895,0.22940175308734176,-0.1902211046911776
1731517651262161000,1.515160888671875,0.6186176360338926,-0.19991583862304688,-0.6959052391801029
1731517651272209000,1.525208984375,-0.8292126895815134,-0.5686211407214403,-0.8931579960737377
1731517651282256100,1.535256103515625,-1.5425339776605367,-0.48645577547103164,-0.5826898154212161
1731517651292304100,1.54530419921875,-1.8545465016782283,0.045110476836562156,0.3119134475573897
1731517651302351000,1.55535107421875,-1.3599486285448072,0.45569969494044776,1.2290610257014631
1731517651312398800,1.56539892578125,-0.2186895126760006,0.27947423624545337,1.7048270648539066
1731517651322446000,1.575446044921875,-0.9058160367906093,-0.015182371562719343,2.1391893727332354
1731517651332494000,1.585494140625,-1.600093017181754,0.1634524863615632,2.1812354935631153
1731517651342541000,1.595541015625,-2.2706138589322564,0.5381397854790091,1.8968404597893356
1731517651352589000,1.605589111328125,-2.803357630586624,0.8500777829557656,1.4473741062805057
1731517651362636000,1.615635986328125,-2.6988872022867203,1.0555316742226482,1.1772086003240196
1731517651372684000,1.62568408203125,-2.7104566440492865,0.9812631997019052,1.0463654211442917
1731517651382731000,1.63573095703125,-2.676364989355206,0.5968158463314175,1.0347689452443272
1731517651392779000,1.645779052734375,-2.2688743217885494,0.48478842678070067,0.772465331769362
1731517651402826000,1.655825927734375,-1.650021123433113,0.31714170359969135,0.7271016108240932
1731517651412873000,1.665873046875,-1.1006775146335364,0.16103490382581948,0.9399913511801511
1731517651422921000,1.6759208984375,-0.6762602621853351,0.24213263984471559,1.1694112975113093
1731517651432968200,1.68596826171875,-0.274872003147006,0.37983167626857756,1.1482272013157606
1731517651443016000,1.696015869140625,-0.09236614900827407,0.32794308359920976,1.0035014811255036
1731517651453063000,1.70606298828125,-0.12577274404764174,0.1990168439567089,1.0588862453475594
1731517651463111000,1.71611083984375,-0.17405834378898144,0.1631999729052186,1.156440756779164
1731517651473158100,1.726158203125,-0.1692190870642662,0.21523966448307036,1.0788789398014544
1731517651483206100,1.7362060546875,-0.33325054235756396,0.24458704725950955,0.8458050740726292
1731517651493253000,1.746253173828125,-0.4183908317655325,0.1874520783692598,0.6496642239436506
1731517651503300900,1.75630078125,-0.20044892258644104,0.11796119351387023,0.418054147157073
1731517651513348000,1.76634814453125,0.09000877222716808,0.014362871873378752,0.28718115736097094
1731517651523396000,1.77639599609375,0.1910609165161848,-0.19257161334007977,0.21934801311735064
1731517651533443000,1.786443115234375,0.23265257157683372,-0.3187587834075093,0.1532755949359387
1731517651543491000,1.796490966796875,0.2749772170871496,-0.27019436672478914,0.10543971172347665
1731517651553538000,1.8065380859375,0.3112877168744802,-0.18672580992132423,0.17644538505598903
1731517651563586000,1.8165859375,0.2693424260705709,-0.15642916359603404,0.24058332804348317
1731517651573633000,1.826633056640625,0.07165829202234744,-0.14445406364202498,0.19673187482468782
1731517651583681000,1.836680908203125,-0.23783903430402278,-0.1994347771078348,-0.07982274764701723
1731517651593728000,1.84672802734375,-0.3182096250921488,-0.24232319398075342,-0.3754736271895468
1731517651603776000,1.85677587890625,-0.21323592344522474,-0.29593641848564145,-0.423977399726212
1731517651613823000,1.866822998046875,-0.1170130990087986,-0.33613895727545023,-0.4023670774752274
1731517651623871000,1.87687109375,-0.021609774261713028,-0.38778877275288104,-0.3584812835954129
1731517651633918000,1.88691796875,-0.04100245699584484,-0.398298184068501,-0.32172662023715676
1731517651643966000,1.896966064453125,0.0012584756284952164,-0.23406769907176495,-0.2364552883280441
1731517651654013000,1.907012939453125,0.143377958843112,-0.06855214270055293,-0.14414280573576688
1731517651664060200,1.91706005859375,0.1599514925032854,-0.07941782010793685,-0.09760678960811346
1731517651674108000,1.92710791015625,0.08238426869809627,-0.1898059480190277,-0.0786472010616213
1731517651684155000,1.93715478515625,0.08666764510571956,-0.17913170153051614,-0.030291860552318393
1731517651694203100,1.947203125,0.14679098215699196,-0.09306260683983564,-0.04938797149267048
1731517651704250000,1.95725,0.2344914774417877,-0.06182897192537784,0.03403641737550497
1731517651714298000,1.967298095703125,0.3143804221928119,-0.09550707738250494,0.11969452011249959
1731517651724345000,1.977344970703125,0.30177579216361045,-0.32850188652575013,0.1733155625976622
1731517651734393000,1.98739306640625,-0.018162848678231237,-0.4268944562166929,-0.17977606384865938
1731517651744440000,1.997440185546875,-0.22442659502327442,-0.19344985747933385,-0.6462969394676387
1731517651754488000,2.007488037109375,-0.1314525432497263,-0.126900579033792,-0.43954665171466767
1731517651764535000,2.01753515625,0.15012334145009518,-0.17785569024533032,-0.07759433100782334
1731517651774583000,2.0275830078125,0.08917582853436469,-0.20315467441380022,0.3300233239393681
1731517651784630000,2.037630126953125,-0.21877777548134325,-0.145520816090703,0.45198600817956025
1731517651794678000,2.047677978515625,-0.2923258267730474,0.05649433289915323,0.3326063627025112
1731517651804725000,2.05772509765625,0.021508651974797247,0.1464598505064845,0.17282872892878948
1731517651814773000,2.06777294921875,0.36560558251738545,-0.025477555605769156,0.09227543851751834
1731517651824820000,2.077820068359375,0.374592022049427,-0.3017956659078598,0.0018819412890821695
1731517651834868000,2.087867919921875,-0.026961072161793706,-0.39244770447462796,-0.17941044540666043
1731517651844915000,2.0979150390625,-0.3481231173187494,-0.2488438279211521,-0.22660857870485632
1731517651854963000,2.107962890625,-0.3774813137501478,-0.053559740751981735,-0.06133293203674257
1731517651865010700,2.1180107421875,-0.30146541104018687,-0.008330898232758045,0.0940621392711997
1731517651875057700,2.1280576171875,-0.17348901946842668,-0.1011748938858509,0.18697379333302377
1731517651885106000,2.13810595703125,-0.06425064611434936,-0.18155074537098406,0.1358698117027059
1731517651895153000,2.14815283203125,0.04598901323676109,-0.2069499750435352,0.04348335055876523
1731517651905200600,2.15820068359375,0.1608662692606449,-0.18919687620997427,-0.07198693945482373
1731517651915247600,2.16824755859375,0.1590016444325447,-0.2091729117900133,-0.07824424628391861
1731517651925295900,2.1782958984375,0.056200026127696034,-0.25989246068000793,-0.1248117169957608
1731517651935342800,2.1883427734375,-0.12142974640727043,-0.30141075824350116,-0.25740495471321045
1731517651945390600,2.198390625,-0.13185410978794096,-0.28759353755414485,-0.30634499977529045
1731517651955437600,2.2084375,0.024370471146702766,-0.11000263572484255,-0.19615900684017687
1731517651965485800,2.21848583984375,0.22513386650979517,0.0482499439060688,0.004052526793815196
1731517651975532800,2.22853271484375,0.21923077994585036,-0.13912468531280756,0.13594273080844432
1731517651985580800,2.238580810546875,0.12114274615943431,-0.13665244998037815,0.2160783803295344
1731517651995627500,2.24862744140625,-0.010220365241169928,0.1585249668315053,0.1930713430231437
1731517652005675800,2.25867578125,-0.14639409179389476,0.16406974147707223,0.013746712736412882
1731517652015722800,2.26872265625,-0.060520811936259265,-0.02134732393324375,0.1866162485996261
1731517652025770800,2.278770751953125,0.14795125810801982,-0.09408727371245622,0.2546877864426933
1731517652035817700,2.288817626953125,0.25951661310493945,-0.04020779948681593,0.2533496149078011
1731517652045865700,2.29886572265625,0.18351240083277223,-0.08375380348563194,0.04994752333788201
1731517652055912700,2.30891259765625,0.09260288037359714,-0.12767244018912316,-0.1515537213130854
1731517652065960700,2.318960693359375,0.20533084940910337,-0.0658677259221673,-0.24822023439640178
1731517652076008000,2.329008056640625,0.2219739411741495,-0.10855974344015121,-0.23350759923728182
1731517652086055000,2.339054931640625,0.1749222671419382,-0.19447540113478898,-0.008693575798999518
1731517652096102700,2.3491025390625,0.12576280717551708,-0.19437720145732162,0.10536883844435214
1731517652106149600,2.359149658203125,0.013863105657696722,-0.14200462466329336,0.2574029636855237
1731517652116198000,2.369197998046875,-0.1652759023964405,0.01190086567401886,0.2809489484405145
1731517652126244900,2.379244873046875,-0.3169301066756248,0.1103533488586545,0.1961898586361669
1731517652136292600,2.389292724609375,-0.3523141392678022,0.06940262205004692,0.09533568460466339
1731517652146339600,2.399339599609375,-0.25974633020758625,-0.059123220098018646,0.0768586188781075
1731517652156387800,2.409387939453125,-0.10671382331252098,-0.13081453760713338,0.007104260780941694
1731517652166434800,2.419434814453125,0.048802317091822624,-0.14634586873799563,-0.07464074189923703
1731517652176482600,2.429482666015625,0.12787468476295472,-0.16070727930665016,-0.1260927880485542
1731517652186529500,2.439529541015625,0.20344167466163635,-0.2503334819570184,-0.10955036191269754
1731517652196577800,2.449577880859375,0.14271394197642803,-0.31466128496080636,-0.06774824243914336
1731517652206624800,2.459624755859375,-0.016570026528835297,-0.22557371923178432,-0.0898337627201341
1731517652216672800,2.4696728515625,-0.10900222651064395,-0.05260258615761995,-0.1554291562406346
1731517652226719700,2.4797197265625,-0.0982125369489193,-0.007768880435824394,-0.11409414282217621
1731517652236767700,2.489767822265625,-0.07702011131644249,-0.04878098204284906,0.02722889278512448
1731517652246814700,2.499814697265625,-0.09881167188584804,-0.05880027175396681,0.14662147080898283
1731517652256862700,2.50986279296875,-0.09517769929766655,-0.049429216818511486,0.10251122052352875
1731517652266910000,2.519909912109375,-0.04920271458625793,-0.11481208183318375,-0.042663412478007375
1731517652276956700,2.529956787109375,0.1340145026922226,-0.1769502658382058,-0.14153651396119965
1731517652287004700,2.540004638671875,0.2877203788042068,-0.16476181539446114,-0.20059494346100837
1731517652297051600,2.5500517578125,0.2334235559493303,-0.1559124462455511,-0.27802210120838133
1731517652307100000,2.560099853515625,0.14340426232814787,-0.13415858733803032,-0.24206509103383866
1731517652317147000,2.57014697265625,0.21812428000867365,-0.15757307293415068,-0.10166824862705542
1731517652327194600,2.580194580078125,0.32218554298579694,-0.17583792068213222,0.010288188046682625
1731517652337241600,2.59024169921875,0.35701369526088234,-0.1396738436281681,-0.0005129910234361887
1731517652347289900,2.600289794921875,0.21283377238512038,-0.12820172476023434,-0.06208239869717508
1731517652357336800,2.6103369140625,0.03453413776457309,-0.09928367331176996,-0.0993018848218955
1731517652367384600,2.620384521484375,-0.057258010748028755,-0.04925122990310192,-0.030585820263903586
1731517652377431600,2.630431640625,-0.13340776897072792,0.005308920063078404,0.08271055977670476
1731517652387479800,2.640479736328125,-0.22969313724935053,0.04054273052960634,0.1403962396185845
1731517652397526800,2.65052685546875,-0.2579056707769632,0.022306816615164277,0.12055175799634307
1731517652407574500,2.660574462890625,-0.15626608198881148,0.038294659341871734,0.04818400253038853
1731517652417621500,2.67062158203125,-0.03487725211381912,-0.004405541482567787,-0.06873259556768462
1731517652427669800,2.680669677734375,0.13148761456310748,-0.0708978290438652,-0.17865458553805946
1731517652437716700,2.690716796875,0.2721557299256325,-0.14621844296604394,-0.23626493512140587
1731517652447764700,2.7007646484375,0.34327976894080636,-0.18496727581620215,-0.27692358364826064
1731517652457811700,2.710811767578125,0.3660387132376432,-0.1872580171018839,-0.19441696721212937
1731517652467859700,2.720859619140625,0.3376367946177721,-0.19037527233958243,-0.07368603499028831
1731517652477906700,2.73090673828125,0.24926234559416768,-0.1324219728037715,0.025373191048996522
1731517652487953700,2.74095361328125,0.04794540800154209,-0.01203062953352928,0.019591712437570095
1731517652498002000,2.751001953125,-0.1155704989850521,0.04444470640420913,-0.005728003991674632
1731517652508049000,2.761048828125,-0.18088497493863104,0.05422083500921726,0.1427316511630546
1731517652518096600,2.7710966796875,-0.05880231758058071,0.13763415449410676,0.2800028632294386
1731517652528143600,2.7811435546875,0.07935878339707851,0.11358487812578677,0.2529361387360841
1731517652538192000,2.79119189453125,0.016732523614168167,-0.023754969596862793,0.1039486055160407
1731517652548238800,2.80123876953125,-0.03072247052192688,-0.11981295886039733,-0.08068743818495422
1731517652558286600,2.81128662109375,-0.008021978414058686,-0.1346951784327626,-0.1470749867301434
1731517652568333600,2.82133349609375,0.06902502090930938,-0.1236161505356431,-0.07416352544208057
1731517652578381800,2.8313818359375,0.07404957107305526,-0.11408376755863428,0.004594789577508345
1731517652588428800,2.8414287109375,0.059089317828416824,-0.11848580190986394,0.1097791200341191
1731517652598476500,2.8514765625,0.017854805642366408,-0.09447890337854624,0.1287055552296806
1731517652608523800,2.861523681640625,-0.03498948031663895,-0.06768880386948585,0.0815869899737183
1731517652618571800,2.87157177734375,-0.060091772869229315,-0.07297697340548039,0.11965639832550659
1731517652628618800,2.88161865234375,-0.06698503951430321,-0.020396891340613364,0.16366949011310933
1731517652638666800,2.891666748046875,-0.021570611295104025,0.020665771409869194,0.09986964737302623
1731517652648713700,2.901713623046875,-0.029911738660931584,-0.07139379586726427,-0.010265729619702324
1731517652658761700,2.91176171875,-0.0818687203913927,-0.1594701387271285,-0.09444586875862442
1731517652668808700,2.92180859375,-0.010241408029198646,-0.1851283115968108,-0.15521781504489482
1731517652678855700,2.931855712890625,0.09331950421035289,-0.19825842680484054,-0.11142072236184031
1731517652688904000,2.941904052734375,0.2019324391424656,-0.19351649297475815,-0.058810994077380746
1731517652698950700,2.95195068359375,0.28830782330334187,-0.15337737480998037,-0.022796929086511954
1731517652708998700,2.96199853515625,0.209408474111557,-0.10959726979434489,0.015122211473854258
1731517652719045600,2.972045654296875,0.07314531570971011,-0.08450111472159623,0.04611144317318685
1731517652729094000,2.982093994140625,-0.033999884757399554,-0.04034165499955415,0.08027404421162791
1731517652739140900,2.992140869140625,-0.10428513486087322,-0.00004676175117492675,0.152491751081869
1731517652749188600,3.002188720703125,-0.15081249275803565,0.08096358824521303,0.20198334734579548
1731517652759235600,3.012235595703125,-0.2461515200972557,0.060520811936259265,0.17661140753896906
1731517652769283800,3.022283935546875,-0.3321598245114088,0.053474108295142646,0.10614161291513591
1731517652779330800,3.032330810546875,-0.27685294783115383,0.029065643225610255,0.13781021431391127
1731517652789378600,3.042378662109375,-0.1109738188445568,0.021092472389340398,0.1330819162835367
1731517652799425800,3.05242578125,0.08177402784526347,-0.003663198682665825,0.15270628888169302
1731517652809473800,3.062473876953125,0.1636246280580759,-0.05715396585166454,0.12276397241940722
1731517652819520800,3.072520751953125,0.16140110678970812,-0.1441159177288413,0.029879658455657772
1731517652829568500,3.082568603515625,0.15441080951094627,-0.13617372655272483,-0.030059860161039977
1731517652839615700,3.09261572265625,0.21883213601708412,-0.18104016550034283,-0.12663398225316777
1731517652849662700,3.102662841796875,0.29317338351309297,0.0874564573958516,0.16970436809686942
1731517652859710700,3.112710693359375,0.3266004368185997,0.12828268104195595,0.04485799991283566
1731517652869757200,3.122757080078125,0.12207096692025661,0.04600216497927904,0.054991015664115545
1731517652879805200,3.13280517578125,-0.0575695609152317,0.03890343888998032,-0.02056886864034459
1731517652889852200,3.14285205078125,-0.07566752766370773,0.17143939346224069,-0.05104136928946245
1731517652899900200,3.152900146484375,0.010460019215941429,0.22534312534630296,0.07869885818362235
1731517652909947100,3.162947021484375,0.16520225263833999,0.1609223833620548,0.18890688028745353
1731517652919995100,3.1729951171875,0.3041349225103855,0.07766337765604257,0.15526380961108951
1731517652930042000,3.1830419921875,0.45928222960233683,-0.006705635118484497,0.06656212422738317
1731517652940090000,3.193090087890625,0.575393411335349,-0.06760287915170192,0.04067477767774835
1731517652950137000,3.20313720703125,0.5309294157087803,-0.11277385400384664,-0.07431515407352708
1731517652960185000,3.21318505859375,0.41494682879149913,-0.1947381437242031,-0.1605263515154831
1731517652970232000,3.223232177734375,0.29369010086357594,-0.22594459837079048,-0.007147606732323765
1731517652980280000,3.233280029296875,0.2785381244391203,-0.2006619808152318,0.23617009644480422
1731517652990327000,3.2433271484375,0.3850391817837953,-0.12939590298086404,0.3907041852755472
1731517653000375000,3.253375,0.4218558775275945,-0.11338467937856912,0.43253984169252213
1731517653010422000,3.263422119140625,0.335559403821826,-0.18578560646176337,0.3229623725771904
1731517653020470000,3.273469970703125,0.04131166907548904,-0.29831483805477615,0.07021950965719297
1731517653030517000,3.28351708984375,-0.2717874811351299,-0.30723259626477956,-0.07857124974858015
1731517653040564000,3.29356396484375,-0.43180619365572925,-0.2951704025492072,-0.12850036064693704
1731517653050612200,3.3036123046875,-0.3969873937308788,-0.2630573544517159,-0.06947765091448091
1731517653060659200,3.3136591796875,-0.4344488171190023,-0.24955285297334193,-0.08647031416902318
1731517653070707200,3.323707275390625,-0.5189519776672125,-0.26519758135080335,-0.1687756541457027
1731517653080754000,3.33375390625,-0.46324704158008095,-0.314068872025609,-0.14991344329277054
1731517653090802200,3.34380224609375,-0.29912498539388177,-0.35186902584880586,-0.05874416678571142
1731517653100849200,3.35384912109375,-0.15285188963115215,-0.33917788657993075,-0.0075738967198412865
1731517653110897200,3.363897216796875,-0.08161737597882747,-0.29519086081534623,0.005113013898488134
1731517653120944000,3.373944091796875,-0.04136252247989178,-0.2562695940077305,0.04421743698697537
1731517653130992000,3.3839921875,-0.01707563796341419,-0.20465163497328756,0.10689368252460844
1731517653141039000,3.3940390625,-0.13815174862742424,-0.1932569652557373,0.19178871933408081
1731517653151087000,3.404087158203125,-0.301185425055027,-0.12806962281316517,0.21711506643351167
1731517653161134000,3.414134033203125,-0.6164724406987429,-0.04161591271907091,0.19452174276085568
1731517653171182000,3.42418212890625,-0.7708838347315787,0.036161446705460544,0.19493691769931465
1731517653181229000,3.43422900390625,-0.6344985112547874,0.10360095198899506,0.1670870800042525
1731517653191277000,3.444277099609375,-0.4284878628879785,0.062057227723300454,0.10383731802813709
1731517653201324300,3.45432421875,-0.3382154712885618,-0.037972295519709584,-0.0015398224536795168
1731517653211372000,3.4643720703125,-0.40451194401681423,-0.060470835314691065,-0.10564090598453767
1731517653221419000,3.4744189453125,-0.3700152156531811,-0.03787731071263552,-0.19216361706107854
1731517653231466000,3.484466064453125,-0.06782558199167252,0.018274492359161378,-0.12576159246596508
1731517653241514200,3.49451416015625,0.22637071482837198,0.038838556960225104,0.009101362015446647
1731517653251561200,3.504561279296875,0.4477157104492187,0.03419453054666519,0.026135517191002145
1731517653261609000,3.51460888671875,0.5702829364538192,0.0004015665382146835,-0.03285849616993219
1731517653271656000,3.524656005859375,0.5499076724231243,0.00036620296388864516,-0.08436869311411864
1731517653281704200,3.5347041015625,0.41575522256493563,0.01543137788772583,-0.10426355321672745
1731517653291751200,3.544751220703125,0.23882044655680654,0.06500087995976209,-0.011609627642482518
1731517653301799200,3.554799072265625,0.08534896372258663,0.12662760731130837,0.07185365019766614
1731517653311846100,3.56484619140625,-0.0253840321034193,0.14797259315699338,0.06643711417480372
1731517653321894100,3.57489404296875,-0.012862988704442977,0.15933891356289387,0.041287895474256944
1731517653331941000,3.584941162109375,0.07024199548363685,0.1602998675495386,0.017488191686524077
1731517653341989000,3.594989013671875,0.1860720221877098,0.10963555597811937,-0.034873900246107946
1731517653352036000,3.6050361328125,0.22824644557237625,0.037194881406426426,-0.14709638571119865
1731517653362084000,3.615083984375,0.2208715328902006,-0.021650398533046244,-0.17532832719217986
1731517653372131000,3.625131103515625,0.260794962477684,-0.04310907388627529,-0.06827769140703603
1731517653382179000,3.635178955078125,0.2533919927448034,-0.029171149426698684,0.056746152235753834
1731517653392226300,3.645226318359375,0.12085633043348788,-0.015863339564204215,0.14086351007046177
1731517653402273300,3.655273193359375,-0.04366670776903629,0.04195581219792366,0.1331619409834966
1731517653412321000,3.665321044921875,-0.11865209838747978,0.09216741156578064,0.0749300528351683
1731517653422368000,3.675367919921875,-0.0975233856409788,0.08974398381114006,0.013455328574404119
1731517653432416300,3.685416259765625,0.004191606470942497,0.0405748792335391,0.07270008355970493
1731517653442463200,3.695463134765625,0.040381110227108,0.04734101236760616,0.14426705316994337
1731517653452511000,3.705510986328125,0.04523205738961696,0.061434127388894554,0.02232815166413784
1731517653462558000,3.715557861328125,0.10158522825241088,0.0010375263541936874,-0.07012355673573911
1731517653472606200,3.725606201171875,0.18150632170736788,-0.08143909680247306,-0.04071023258361965
1731517653482653200,3.735653076171875,0.1807300766378641,-0.18963819023668765,0.02488654917636886
1731517653492701000,3.745700927734375,0.08012450707256794,-0.22662089019715784,0.15777029427299274
1731517653502748000,3.755747802734375,-0.10298632722198962,-0.14562836811840532,0.17144180461503564
1731517653512796200,3.765796142578125,-0.2771779420018196,-0.08260784832090139,0.12423269326509907
1731517653522843100,3.775843017578125,-0.40535891623497006,-0.04584902024418115,0.051856042106635865
1731517653532891100,3.78589111328125,-0.42641164113581176,-0.01688829869776964,-0.04591088823294267
1731517653542938000,3.795938232421875,-0.31864918555319305,0.001034019222855568,-0.14836771168811247
1731517653552985000,3.805985107421875,-0.09211480459570884,0.02771685896515846,-0.21670219304999336
1731517653563033000,3.816033203125,0.11816577617526054,-0.019811784929037093,-0.19548706239536404
1731517653573080000,3.826080078125,0.20266952124536036,-0.15268150150030851,-0.15194197171200066
1731517653583128300,3.83612841796875,0.22239888858795165,-0.23653145883679388,-0.14419340341184286
1731517653593175300,3.84617529296875,0.17858020512759684,-0.2946431638047099,-0.2665741669336334
1731517653603223000,3.85622314453125,0.14015607418715953,-0.3210185450330376,-0.3822096209136769
1731517653613270000,3.86627001953125,0.12881751857101917,-0.28212358171045776,-0.34978279415927827
1731517653623318300,3.876318359375,0.09889525851607323,-0.2007046509131789,-0.27868370692227035
1731517653633365200,3.886365234375,-0.03699205231070518,-0.05539923113882542,-0.21842958309818059
1731517653643413000,3.8964130859375,-0.23038404212296007,0.0686842446476221,-0.1557829746469855
1731517653653460000,3.9064599609375,-0.1993348238646984,0.10780337211489677,-0.022290176007617263
1731517653663508200,3.91650830078125,-0.059738721647858616,0.10111907204538584,0.13642110717622563
1731517653673555200,3.92655517578125,-0.017622165930271147,0.04395633836537599,0.16400116975288836
1731517653683603000,3.93660302734375,-0.04120645513534546,-0.0012459084078669548,0.09429649601634592
1731517653693650000,3.94664990234375,-0.06136953772008419,0.0022241057902574538,0.043709323068056256
1731517653703698200,3.9566982421875,-0.016841244685649872,0.015149053815007208,0.02707390315281227
1731517653713745200,3.9667451171875,-0.00932020153105259,0.06522738219201564,0.09236048645246774
1731517653723792100,3.976792236328125,-0.10822305883169174,0.0750718998581171,0.19752302520237863
1731517653733840000,3.98683984375,-0.2200783366858959,0.08061755128651857,0.19948256177231669
1731517653743887000,3.99688720703125,-0.2447095045953989,0.04414747702330351,0.10609194682082161
1731517653753935000,4.00693505859375,-0.23868308391273022,-0.007491232538223266,0.04503746639927849
1731517653763982000,4.016982177734375,-0.119030284050107,-0.021541385200619698,0.054719432181119916
1731517653774030300,4.0270302734375,0.00230009363591671,-0.048802024830877776,0.12857015621382742
1731517653784077000,4.0370771484375,0.03615209435522556,-0.04956190328747034,0.136162346642185
1731517653794125000,4.047125,-0.007953589352965354,-0.03294716083407402,0.09079153836900368
1731517653804172000,4.057172119140625,0.03118599638044834,-0.003988777375221252,0.037095530951488764
1731517653814220300,4.06722021484375,0.1841945378780365,-0.010812193654477595,0.10822926937676966
1731517653824267300,4.077267333984375,0.21057810241281985,-0.0036003625795245167,0.18420894999587908
1731517653834315000,4.08731494140625,0.1530710853397846,-0.004494388809800148,0.1621252198131755
1731517653844362000,4.097362060546875,0.1284755732655525,-0.03620207097679377,0.09901806291183456
1731517653854410200,4.10741015625,0.1411848327130079,-0.09687515086531638,0.057221697325631975
1731517653864457200,4.117457275390625,0.11240531295239925,-0.14938070638924836,-0.01381285504149273
1731517653874504700,4.127504638671875,0.05678922419250011,-0.16762538813203573,-0.01946841485146433
1731517653884552700,4.137552734375,0.05594342101812362,-0.08583382463008164,0.032012692995555696
1731517653894599700,4.147599609375,0.0693552757769823,0.0009089315384626388,0.08330132874408737
1731517653904648000,4.15764794921875,0.10936521460413932,0.007365852592885494,0.15546762508749962
1731517653914695000,4.16769482421875,0.14894436079859733,-0.0018622867405414581,0.12460952722085639
1731517653924742700,4.17774267578125,0.13332768947184084,-0.023066402810811994,0.05719075419809669
1731517653934789600,4.18778955078125,0.041055648487806316,-0.029614217019081113,0.033230781814735384
1731517653944838000,4.197837890625,-0.10725099892914294,-0.0038861937835812568,0.10665911571690811
1731517653954884900,4.207884765625,-0.20997253773510455,0.05279050994515419,0.1543793183941394
1731517653964932600,4.2179326171875,-0.0957546224027872,0.05343114593625068,0.20375064927926287
1731517653974979600,4.2279794921875,0.14777940867245196,0.03795768247246742,0.17607324554165824
1731517653985027800,4.23802783203125,0.2235030504375696,-0.002400339139997959,0.12667944709639994
1731517653995074800,4.24807470703125,0.016785715106129646,-0.05679945332556963,-0.05217867992343381
1731517654005122600,4.25812255859375,-0.10775894845128059,-0.08125760275572538,-0.07061503004711121
1731517654015169500,4.26816943359375,-0.05029518599808216,-0.012037351535260676,0.06262889013141393
1731517654025216800,4.278216796875,0.07572130367755889,0.02562806999236345,0.19549091658657416
1731517654035264800,4.2882646484375,0.18081833944320677,0.048183892932534216,0.2619411185718141
1731517654045311700,4.298311767578125,0.13362754920125006,-0.005502981330454349,0.16994212237549944
1731517654055359700,4.30835986328125,-0.06107786129713058,-0.10280834030658006,0.03919661315027624
1731517654065406700,4.31840673828125,-0.23447569535076618,-0.1348313720330596,-0.04517342253755778
1731517654075454700,4.328454833984375,-0.27602175770401954,-0.12274608970284462,-0.12048789897989481
1731517654085501700,4.338501708984375,-0.10196692104637622,-0.0858949071675539,-0.1771607667837292
1731517654095549700,4.3485498046875,0.17158815428316593,-0.06475596528798341,-0.10852750340467318
1731517654105596700,4.3585966796875,0.3151794636160135,-0.08337766364961863,0.005406462153419852
1731517654115644700,4.368644775390625,0.29982465809583664,-0.11192951213419437,-0.0007746011016890406
1731517654125691600,4.378691650390625,0.24287527490556238,-0.15257131912410257,-0.06608863866385072
1731517654135740000,4.388739990234375,0.268864871686697,-0.17279928363859653,-0.057537905401643365
1731517654145787000,4.398786865234375,0.2762929758608341,-0.13337386670112608,0.007584609910100698
1731517654155834600,4.408834716796875,0.18258534911572932,-0.05377601385116577,0.08386751125948504
1731517654165881600,4.418881591796875,-0.013206687575578689,0.06870470291376113,0.09877303864220156
1731517654175929900,4.428929931640625,-0.19823767627775668,0.11655892550051211,0.11042266950150952
1731517654185976800,4.438976806640625,-0.22006313911676406,0.11371113485395908,0.08067773877484724
1731517654196023800,4.44902392578125,-0.16002864939272402,0.06947685633003711,-0.012918207756709307
1731517654206071600,4.459071533203125,-0.13522855465710162,-0.051177229529619214,-0.10885110933585092
1731517654216118800,4.469118896484375,-0.11902736144065856,-0.13481383637636898,-0.13624394224472344
1731517654226166800,4.479166748046875,-0.0055599722146987916,-0.13862988753318786,-0.11749766765534878
1731517654236213800,4.4892138671875,0.08607669347524642,-0.12690028677284718,-0.04106991447517648
1731517654246261800,4.49926171875,0.12192074479460716,-0.13285101187080145,0.005231324782222509
1731517654256308700,4.509308837890625,0.14043372208476065,-0.13333937990963457,-0.012636194211244582
1731517654266356700,4.519356689453125,0.16791384968459605,-0.12778905230611562,-0.038696554673649367
1731517654276403700,4.52940380859375,0.17334698064923285,-0.13926789317578075,-0.053084378325194116
1731517654286451700,4.53945166015625,0.05776479122638702,-0.11242752478420734,-0.05227344553479925
1731517654296498700,4.549498779296875,-0.1914917091488838,-0.030036826345324515,-0.029636520182434466
1731517654306546700,4.559546630859375,-0.4316214847385883,0.05562719467580318,0.003172693485673517
1731517654316593700,4.56959375,-0.4914923083335161,0.11438596537560224,0.04309517322508618
1731517654326642000,4.579641845703125,-0.31495617625415323,0.09117635470181704,0.06999967462774366
1731517654336688600,4.589688720703125,-0.04163023350536823,0.021695698979496955,0.12509658008543773
1731517654346735600,4.599735595703125,0.1823953795015812,-0.049125557696819304,0.07813335152165964
1731517654356783600,4.60978369140625,0.3000245645821094,-0.11743921546638011,-0.05338400059258565
1731517654366830800,4.619830810546875,0.32993571872115135,-0.2225526178449392,-0.1945660020276904
1731517654376878800,4.62987890625,0.23787702822685242,-0.26243659220486876,-0.17862999908607452
1731517654386925800,4.63992578125,0.10194061756134033,-0.22269202631562948,-0.10512467269124462
1731517654396973800,4.649973876953125,-0.013259294545650481,-0.11060732361972331,-0.020476916040573268
1731517654407020800,4.660020751953125,-0.13745733662247656,-0.058812838974595064,0.05670698926914483
1731517654417068800,4.67006884765625,-0.2419032150030136,-0.054909401795268056,0.07137657073782756
1731517654427115800,4.68011572265625,-0.25135201134979723,-0.01923544634580612,0.0463961692655459
1731517654437163800,4.690163818359375,-0.08258709779381751,0.02939209870100021,0.03351728887222707
1731517654447210800,4.700210693359375,0.10505319662392139,-0.04636398402899503,0.04235525984428823
1731517654457258800,4.7102587890625,0.1580827760219574,-0.16509265478402374,0.010229918520804494
1731517654467305700,4.7203056640625,0.19868249743580818,-0.22807430387586353,-0.0797603499352932
1731517654477353700,4.730353759765625,0.2295201187700033,-0.2023079944565892,-0.14025412773415447
1731517654487400700,4.740400634765625,0.17603168968856334,-0.1562587754651904,-0.07288498427309095
1731517654497447700,4.75044775390625,0.025826515173912046,-0.139245096822083,0.014338395019248128
1731517654507495700,4.76049560546875,-0.12431845358610152,-0.07609335186034441,0.07071266346899792
1731517654517543000,4.77054296875,-0.20021219122111797,0.009210019154846668,0.09875448007220401
1731517654527590700,4.780590576171875,-0.19433833075165746,0.06477963842451571,0.09393038438400253
1731517654537637600,4.7906376953125,-0.11535831753909587,0.05166004461050033,0.02801907504843548
1731517654547685600,4.800685546875,-0.04409107066094875,0.02483954996317625,-0.052053519173804665
1731517654557732900,4.81073291015625,-0.04437690186500549,-0.014833704255521296,-0.11697223727544769
1731517654567780600,4.820780517578125,-0.09834814602732658,-0.051719373582303524,-0.1136576328347437
1731517654577827600,4.83082763671875,-0.15137188020646572,-0.027383973748981952,-0.037773466745670885
1731517654587875800,4.840875732421875,-0.14459201080799103,0.029803309850394723,0.03235706772012636
1731517654597922800,4.8509228515625,-0.017846622335910795,0.06586480331271886,0.08481354167163371
1731517654607970800,4.860970703125,0.1078238303810358,0.04538783247321844,0.08096802695831283
1731517654618017800,4.871017822265625,0.20962240912318228,0.0005278232663869858,-0.014038334360439329
1731517654628065800,4.881065673828125,0.2545376556485891,-0.0753223674878478,-0.09193314615217968
1731517654638112800,4.89111279296875,0.268268074837327,-0.08257394605129957,-0.08664740603528916
1731517654648159700,4.90115966796875,0.29981589026749134,-0.05948065523356199,-0.0687878694188781
1731517654658207700,4.911207763671875,0.26111878760457036,-0.05586392604112625,-0.08751808792259544
1731517654668254700,4.921254638671875,0.12956746015548706,-0.020970307314395902,-0.06300656433738767
1731517654678302700,4.931302734375,0.03134673990011215,0.02488338910490274,-0.0803544433709234
1731517654688349700,4.941349609375,-0.05901566807031631,0.05049304665774107,-0.02093633197955787
1731517654698397700,4.951397705078125,-0.1826946547091007,0.03523527177125215,0.02986837444324046
1731517654708445000,4.96144482421875,-0.22554420087635516,0.060979077097773546,0.07271070541841909
1731517654718492700,4.97149267578125,-0.20985387979149817,0.09154431123137474,0.06474836650341749
1731517654728539600,4.98153955078125,-0.12096095985174178,0.056822541940212246,0.009653086747229098
1731517654738587600,4.991587646484375,0.0021381810724735257,-0.026992344082891938,0.0010285210638307034
1731517654748635000,5.001634765625,0.11283961271643637,-0.06367343074828385,0.0015491108718328178
1731517654758682600,5.0116826171875,0.16329846484363078,-0.07607260133326053,-0.03013367431592196
1731517654768729600,5.0217294921875,0.12309621831476687,-0.07670739210546017,-0.02419175357893109
1731517654778776600,5.031776611328125,0.052722705405950546,-0.07558569459915161,-0.04475958103965968
1731517654788824800,5.041824951171875,0.023294366347789763,-0.07755202623605728,-0.002357011454924941
1731517654798871800,5.051871826171875,0.09567337386012077,-0.08619301333129406,0.023193901647999882
1731517654808919600,5.06191943359375,0.26965572980344293,-0.0729372259169817,0.019712544071953744
1731517654818966500,5.071966552734375,0.35962767715156074,-0.04941489603221416,0.019197379357740282
1731517654829014800,5.082014892578125,0.2899211037188768,-0.08893237516731023,0.05232674662461504
1731517654839061800,5.092061767578125,0.1298094522178173,-0.07802928835898637,0.06509149911897257
1731517654849109800,5.10210986328125,-0.04121989913880825,0.014918752190470695,0.04874835841488093
1731517654859156700,5.11215673828125,-0.02705342662036419,0.06551175209134817,-0.04428430994441732
1731517654869204200,5.122204345703125,0.09094809890389442,-0.02181231109648943,-0.08815426693428308
1731517654879251200,5.132251220703125,-0.1822118396282196,-0.279734056225419,-0.0294494183788076
1731517654889299200,5.14229931640625,-0.29750059906244275,-0.14009879104197023,-0.015561689736507832
1731517654899346200,5.15234619140625,-0.15499883853197097,0.07089929034858941,-0.024559545711707324
1731517654909394200,5.162394287109375,-0.01290858141183853,0.06294219386428594,-0.0024681802118197084
1731517654919441200,5.172441162109375,0.0582972906678915,-0.05480243428945541,0.013623433416616171
1731517654929488100,5.182488037109375,0.11723989350199698,-0.11752777053266764,-0.07697349569573998
1731517654939536400,5.192536376953125,0.09586977321505546,-0.11073767200112342,-0.199241117699258
1731517654949583400,5.202583251953125,0.026287118422985076,-0.10687661265879869,-0.24369521298632024
1731517654959631000,5.212631103515625,0.01641863535940647,-0.13247078038156032,-0.18878542759856207
1731517654969678000,5.222677978515625,-0.010940496209263802,-0.12469576246589421,-0.07442803073031827
1731517654979726300,5.232726318359375,-0.09856617269217967,-0.08131488590091467,0.02208727384665981
1731517654989773300,5.242773193359375,-0.1866378393769264,-0.03461129465401173,0.029781901736184953
1731517654999821300,5.2528212890625,-0.24771686971783635,-0.007055179208517074,0.01720552968708798
1731517655009868000,5.262867919921875,-0.14841946014165877,-0.03156009038984775,0.056111872920207674
1731517655019916300,5.272916259765625,0.10035773228406905,-0.050565527372062206,0.038346133800782264
1731517655029963300,5.28296337890625,0.3616425241053104,-0.07081365789175033,-0.02967292493637651
1731517655040011300,5.29301123046875,0.5340934326976537,-0.14104104032814502,-0.07146534499982371
1731517655050058200,5.303058349609375,0.5892641157776117,-0.20439532212466,-0.034056090190354736
1731517655060105200,5.313105224609375,0.4497346490561962,-0.18875176279097794,-0.03750303404014557
1731517655070153200,5.3231533203125,0.1389244865655899,-0.169618607775867,-0.08619829229461029
1731517655080200200,5.3332001953125,-0.11333762536644935,-0.15742431211322544,-0.13039209267767146
1731517655090248400,5.34324853515625,-0.2188502561956644,-0.12454612486213446,-0.0928699703445658
1731517655100295400,5.35329541015625,-0.2151724444657564,-0.13220511518269776,-0.04690444758124649
1731517655110343200,5.36334326171875,-0.10375321994125843,-0.09925006330311298,-0.0037097777707502245
1731517655120390100,5.37339013671875,0.0007943652480840683,-0.11020312673300504,-0.008589932761434466
1731517655130438400,5.3834384765625,0.012997428739070891,-0.1897796445339918,-0.005833181399200111
1731517655140485400,5.3934853515625,0.031242695003747937,-0.1963116766512394,-0.05311884685037657
1731517655150533000,5.403533203125,0.0405073669552803,-0.12904022141098975,-0.08512881816588341
1731517655160580000,5.413580078125,0.0505634815454483,-0.09502104743123053,-0.0821549169216305
1731517655170628400,5.42362841796875,0.006156769064068794,-0.1071001922816038,-0.13548371672825887
1731517655180675300,5.43367529296875,-0.0245563491076231,-0.1069914712101221,-0.23429149789027867
1731517655190723000,5.44372314453125,0.04958966807723045,-0.0768777802363038,-0.34907921246718615
1731517655200770000,5.45377001953125,0.24479016861617564,-0.07958440884649753,-0.39403424301370976
1731517655210817300,5.4638173828125,0.5138707288801669,-0.14719254869520662,-0.3094507472382858
1731517655220865300,5.473865234375,0.7123381222605705,-0.1826230507776141,-0.22518501217514275
1731517655230912300,5.483912353515625,0.7457891409635543,-0.16028613128513097,-0.21572134705279022
1731517655240960000,5.4939599609375,0.6580816314160823,-0.13090659980475902,-0.24824334127735345
1731517655251007200,5.50400732421875,0.4754974513441324,-0.1260568216860294,-0.3048480757484212
1731517655261055200,5.51405517578125,0.3153980748027563,-0.12014116790145635,-0.23498390060123056
1731517655271102200,5.524102294921875,0.20105799439549446,-0.08981529548168182,-0.1784657484350726
1731517655281150500,5.534150390625,0.13742051174342632,-0.10496902547180652,-0.08433642567917704
1731517655291197200,5.544197265625,0.18845277984440326,-0.1666673567548394,0.018576653643511236
1731517655301245200,5.5542451171875,0.2634738262981176,-0.22388065157830714,0.09236929081343113
1731517655311292200,5.564292236328125,0.25596739619076253,-0.27295097195655105,0.08127692851070314
1731517655321340400,5.57434033203125,0.30026597212255,-0.2958019784510135,0.059431098737102
1731517655331387400,5.584387451171875,0.39895080275833605,-0.3403501452296972,0.10623752930397168
1731517655341434400,5.594434326171875,0.42801206206977366,-0.4290925507828593,0.11055809591682628
1731517655351482000,5.604482177734375,0.4868260700881481,-0.47042380134165285,0.05352759204804897
1731517655361529300,5.614529296875,0.49398178706169127,-0.5004100665435195,0.006003752193134278
1731517655371577300,5.624577392578125,0.3045785746246576,-0.5284215245410799,-0.060945211360789835
1731517655381624300,5.634624267578125,0.047667175582051274,-0.46264074625000356,-0.0974061707357876
1731517655391672000,5.644672119140625,-0.17074001302123068,-0.3633751931168139,-0.022846147656254468
1731517655401719300,5.65471923828125,-0.38405776953101156,-0.2533440619498491,0.07606178767830132
1731517655411767300,5.664767333984375,-0.4667173480391502,-0.16061127158626914,0.08102909122947603
1731517655421814300,5.674814208984375,-0.2467915715664625,-0.1702994296468794,0.07051071115611121
1731517655431862000,5.684862060546875,0.19495441682338713,-0.32240999939143655,0.027301227368973193
1731517655441909200,5.6949091796875,0.666267860481143,-0.5132366687603295,0.029585593712795524
1731517655451957200,5.704957275390625,0.8700941505461931,-0.6911182240992784,0.04801832710728049
1731517655462004200,5.715004150390625,0.7363309922665358,-0.7072333464674652,0.0025192893445491788
1731517655472051200,5.72505126953125,0.4898170685976743,-0.5857439788274467,0.11532554778065532
1731517655482099200,5.73509912109375,0.004647533544898033,-0.39380584108531475,0.3446684468202293
1731517655492146200,5.745146240234375,-0.6255711084336042,-0.09257657688856125,0.39699659995064135
1731517655502194200,5.755194091796875,-1.161397064012289,0.10360416685938835,0.37054318505004047
1731517655512241200,5.7652412109375,-1.3648855004251002,0.13350567638725042,0.4017096730124205
1731517655522289200,5.7752890625,-1.0876017599612473,0.0759340696454048,0.5566764359056949
1731517655532336000,5.785336181640625,-0.44491175894439217,-0.12358999318107962,0.5600528535362332
1731517655542384000,5.795384033203125,0.16507658043205736,-0.3345142786830663,0.493651422596164
1731517655552431400,5.805431396484375,0.6869593508541584,-0.49625966886579986,0.40518520363587884
1731517655562479400,5.815479248046875,0.9114110803186893,-0.6254227860040963,0.3706789402589202
1731517655572526300,5.8255263671875,0.8380097440212965,-0.7532442792750894,0.38851679476648565
1731517655582574000,5.835573974609375,0.7173579962491988,-0.8784941684924066,0.39389297137949614
1731517655592621300,5.845621337890625,0.43688276626765726,-0.9093095779947936,0.34521698408108203
1731517655602668300,5.855668212890625,0.05897299797236919,-0.875095173703879,0.3365884546086192
1731517655612716300,5.86571630859375,-0.19297113405168057,-0.8479397480137646,0.3861304841518402
1731517655622763300,5.87576318359375,-0.30436756222248074,-0.832335497777164,0.40919966344162817
1731517655632811300,5.885811279296875,-0.29776012678146363,-0.8524256612561643,0.38017110082339495
1731517655642858200,5.895858154296875,-0.12779986596107482,-0.8457692721068859,0.292786265625339
1731517655652906200,5.90590625,0.043263972187042234,-0.8418314942665398,0.14136623542821034
1731517655662953200,5.915953125,0.16049918951392173,-0.842958598600328,0.010488679054845124
1731517655673001200,5.926001220703125,0.08988777619600295,-0.7753820229336619,-0.05098466609958559
1731517655683048200,5.936048095703125,-0.05286649779081344,-0.6411262588314711,-0.05746505936114117
1731517655693096200,5.94609619140625,-0.19154373159706592,-0.5480715430371463,-0.12062473190100863
1731517655703143200,5.95614306640625,-0.34782384211122985,-0.5678785056605935,-0.1952218173216097
1731517655713191200,5.966191162109375,-0.3264350171238184,-0.6176352008678019,-0.11656919116619974
1731517655723238100,5.976238037109375,-0.17668927681446076,-0.6063464757427572,0.06360398224126547
1731517655733285000,5.98628515625,0.0012695815443992614,-0.6106443190671503,0.218186787318252
1731517655743333400,5.99633349609375,0.4191133008211851,-0.639634558968991,0.2523825234413147
1731517655753380400,6.00638037109375,1.01532796638906,-0.7941385997213423,0.2709597981393337
1731517655763428000,6.016427978515625,1.4794482836723326,-1.0349221630446612,0.27988544739484783
1731517655773475000,6.02647509765625,1.557166314125061,-1.2882326149858534,0.23427493034796787
1731517655783523300,6.0365234375,1.4424422028362751,-1.3698511600084602,0.1541059813454747
1731517655793570300,6.0465703125,1.293627605897188,-1.4220197386629878,0.14711458808816968
1731517655803618300,6.056618408203125,1.0485095205008983,-1.4340224572762845,0.33358803068362175
1731517655813665000,6.0666650390625,0.8051561066895723,-1.3322098500087856,0.5430803836863488
1731517655823713300,6.07671337890625,0.6094891576826572,-1.2010349546566605,0.6418303154475986
1731517655833760300,6.08676025390625,0.3038105128616094,-1.172633620558679,0.6937176660079508
1731517655843807200,6.09680712890625,0.0003653261810541153,-1.245345659417659,0.7910020552612841
1731517655853855200,6.106855224609375,-0.12640928838551044,-1.2706371909320353,0.9159652364917099
1731517655863902200,6.116902099609375,-0.1233481472492218,-1.3078826334819198,0.88774744226709
1731517655873950200,6.1269501953125,0.03126315326988697,-1.4725637848556041,0.7125392708558589
1731517655883997400,6.13699755859375,0.27574177171885966,-1.6551557098425924,0.4003378001373261
1731517655894045400,6.14704541015625,0.5427677375406027,-1.7976118776656687,0.16862177875824272
1731517655904092400,6.157092529296875,0.7183259644985198,-1.8431581155709922,0.04742733894418925
1731517655914140400,6.167140380859375,0.677927903136611,-1.8116088388361036,0.026427202747110277
1731517655924187400,6.1771875,0.36389293338060374,-1.6941681620649993,0.14520438881898298
1731517655934235400,6.1872353515625,-0.001727262184023857,-1.4703634983323515,0.3654037763349712
1731517655944282400,6.197282470703125,-0.2025380038201809,-1.2178817523002623,0.6168078101329505
1731517655954330400,6.207330322265625,-0.11365443623065948,-1.0550216788738966,0.7407922094590962
1731517655964377300,6.21737744140625,0.11040566356778145,-1.0251638623572885,0.7528764688760041
1731517655974424300,6.22742431640625,0.329054259711504,-1.1142540584348142,0.7112637710273265
1731517655984472300,6.237472412109375,0.46105157736241814,-1.2599208588674664,0.634813057096675
1731517655994519600,6.24751953125,0.5513029261738062,-1.4090199718363583,0.5924335395939648
1731517656004567300,6.2575673828125,0.5145172100901604,-1.4862391128562389,0.5997594255026429
1731517656014614300,6.2676142578125,0.16804828971922398,-1.4991994244553148,0.7186520546477287
1731517656024662300,6.277662353515625,-0.3655383625000715,-1.3703079638652502,0.6931313905525952
1731517656034709500,6.28770947265625,-0.7701070051401853,-1.202077595577389,0.5838606492988765
1731517656044757200,6.29775732421875,-0.9060697192907333,-1.1218526968702673,0.5007070767287165
1731517656054804200,6.30780419921875,-1.058378003564477,-1.1751163772851227,0.41730486315973103
1731517656064852200,6.317852294921875,-1.0497124665498734,-1.1870946921095251,0.40709045273531225
1731517656074899500,6.3278994140625,-1.0233283174932002,-1.141832093451172,0.3056442676274106
1731517656084947500,6.337947509765625,-1.0689403141111136,-1.03983886891976,0.1779803760709241
1731517656094994400,6.347994384765625,-1.1507979285866021,-0.9862332431994378,0.18087847213260827
1731517656105041200,6.358041259765625,-1.1334493189007042,-0.9898423736073076,0.3135152932634577
1731517656115089400,6.36808935546875,-1.0735784953057765,-0.9841967689357697,0.401002839917317
1731517656125136400,6.378136474609375,-0.8474743224591016,-0.9928725350834429,0.5030221122054382
1731517656135184400,6.388184326171875,-0.5733399859368801,-1.0426887053929268,0.5604753167320042
1731517656145231400,6.3982314453125,-0.30564123542010785,-1.1303101440921426,0.5431975072599947
1731517656155279400,6.408279296875,-0.14577742120027543,-1.16130178694427,0.4584101229429245
1731517656165326300,6.418326416015625,-0.17057517784833906,-1.0796570845670999,0.36206272227875885
1731517656175374300,6.428374267578125,-0.43936347716748714,-0.9372077848762274,0.29454759447574613
1731517656185421600,6.438421630859375,-1.0085925206542015,-0.7559690280638635,0.19889192066909744
1731517656195469300,6.44846923828125,-1.5540034661799669,-0.5752922890484333,0.07976131804967299
1731517656205516300,6.458516357421875,-1.8429314672082662,-0.4758804593123495,-0.11717901189392432
1731517656215563300,6.468563232421875,-2.0008973388522864,-0.49145577571541066,-0.3703173404049128
1731517656225611500,6.478611572265625,-1.7447247754782438,-0.5574896519847213,-0.48306335655376315
1731517656235658500,6.488658447265625,-1.1475386345297098,-0.663304334500432,-0.5659402310743927
1731517656245706200,6.498706298828125,-0.5440197834283114,-0.6423293510109186,-0.6573221913509071
1731517656255753200,6.508753173828125,-0.22708149344623088,-0.5315640603505075,-0.6833882143691181
1731517656265801500,6.518801513671875,-0.14762743298113346,-0.4254604778908193,-0.6566638735726475
1731517656275848400,6.528848388671875,-0.10425649328827857,-0.3342994668886065,-0.5044240879578515
1731517656285896200,6.538896240234375,0.0851104787915945,-0.2518245972976088,-0.33084545397721227
1731517656295943200,6.548943115234375,0.5999877543658018,-0.17441007983610032,-0.2507685489060357
1731517656305991400,6.558991455078125,1.230909576177597,-0.16852657475546,-0.22121680266391486
1731517656316038400,6.569038330078125,1.6231249332010744,-0.2998737579345703,-0.2206692335174419
1731517656326085400,6.57908544921875,1.888238343399763,-0.42791956148073074,-0.21782650263849646
1731517656336133000,6.589133056640625,2.041245131331682,-0.42402766860872504,-0.3455054456336423
1731517656346180400,6.599180419921875,2.1012971567124126,-0.3636366205319762,-0.4865385583836585
1731517656356228400,6.609228271484375,2.1595792498111726,-0.31043256134986874,-0.5841634316377341
1731517656366275300,6.619275390625,2.225886828455329,-0.16951485514044762,-0.6747352445751428
1731517656376323600,6.629323486328125,2.2691928862184283,-0.023235914158821105,-0.6654952686734498
1731517656386370300,6.639370361328125,2.1495079376518724,0.11555617819875479,-0.613782032570988
1731517656396418300,6.649418212890625,1.8253776903390884,0.2957888267084956,-0.4787212356962263
1731517656406465300,6.65946533203125,1.3731214138507841,0.5301026094958186,-0.23670155470669269
1731517656416513500,6.669513427734375,0.9269178615301847,0.6828527923181653,0.025979221517592667
1731517656426560500,6.679560546875,0.5816635776460171,0.7867512659490108,0.20527009566519408
1731517656436608300,6.689608154296875,0.3991419414162636,0.7130782731033861,0.27629885761234907
1731517656446655200,6.6996552734375,0.36912966499030586,0.46633185585290193,0.27316428591366854
1731517656456702500,6.709702392578125,0.6489169127076864,0.20186668042987585,0.1492758851747494
1731517656466750500,6.71975048828125,1.2556103021919727,-0.0363704132810235,0.009568139276979491
1731517656476797400,6.72979736328125,1.9088947624593973,-0.3676379651278257,-0.11421486485870555
1731517656486845200,6.73984521484375,2.3433143534839154,-0.7232111061915755,-0.24992683738488702
1731517656496892400,6.749892333984375,2.4058698861181735,-0.9862456642895936,-0.46456521150656044
1731517656506940400,6.7599404296875,2.251812127828598,-1.1334073794551194,-0.6060896149048581
1731517656516987400,6.7699873046875,2.0632722542226314,-1.1450810122445225,-0.6022715179214254
1731517656527035400,6.780035400390625,1.8562825316905973,-1.0928256320893763,-0.5255407084077597
1731517656537082400,6.790082275390625,1.7117109791487455,-1.0217432402588427,-0.30764154239185154
1731517656547130400,6.80013037109375,1.4747978275179863,-1.0363451815851032,-0.2091526727195829
1731517656557177300,6.81017724609375,1.1946774023234843,-1.0645634142011404,-0.2964681142095476
1731517656567225300,6.820225341796875,1.01348146173954,-1.0860755733072758,-0.4473167377268895
1731517656577272300,6.830272216796875,0.9980664504647254,-1.1200769193693996,-0.3669371233820915
1731517656587319300,6.8403193359375,0.9277525587886571,-1.1274039012566208,-0.08691266937535255
1731517656597367300,6.8503671875,0.7327747610896825,-1.1110666605703532,0.09429863317450508
1731517656607414300,6.860414306640625,0.49675125177502627,-1.1883701188728213,0.10921802468579261
1731517656617462300,6.870462158203125,0.3566834403932094,-1.3321408764258027,-0.04700843767868355
1731517656627509200,6.88050927734375,0.3408867363244295,-1.4610476807154715,-0.19824750355202703
1731517656637557200,6.89055712890625,0.32989071053564545,-1.557397492532432,-0.19576765116872266
1731517656647604500,6.9006044921875,0.2292377946972847,-1.7194130779586732,-0.19318766287919134
1731517656657652500,6.910652587890625,-0.13918284524083135,-1.9869621908716857,-0.07075221002809703
1731517656667699500,6.920699462890625,-0.6559568943470716,-2.1689000358641146,0.0850369020987302
1731517656677747200,6.930747314453125,-1.2295850495755671,-2.2449318667955693,0.20040986921768633
1731517656687794400,6.94079443359375,-1.6248831750452517,-2.176235347188264,0.2916981415950693
1731517656697841400,6.95084130859375,-1.9177718963980674,-2.0318106557711957,0.4748957591239363
1731517656707889400,6.960889404296875,-2.230045701700449,-1.9220476740211248,0.7061544651895761
1731517656717936400,6.970936279296875,-2.4757149912387133,-1.8097095810860395,0.8153957611531019
1731517656727984400,6.980984375,-2.6695342665523287,-1.6068354771792888,0.7585035149775445
1731517656738031400,6.99103125,-2.837202032521367,-1.3643677601613104,0.5729888344116508
1731517656748079400,7.001079345703125,-2.9696576153337952,-1.1748102339453994,0.37757279142588374
1731517656758126300,7.011126220703125,-2.9400071579575537,-0.9803804255180061,0.254926472303085
1731517656768174300,7.02117431640625,-2.72531460596323,-0.852136176790297,0.1725357373315841
1731517656778221300,7.03122119140625,-2.6296225274026392,-0.9250184576496482,0.0788658487809822
1731517656788269300,7.041269287109375,-2.5439362945497033,-1.0716070491023362,-0.15977025418486446
1731517656798316300,7.05131640625,-2.3391543111950157,-1.199377542838454,-0.336655966886878
1731517656808363500,7.061363525390625,-1.946295980092883,-1.313726244943589,-0.35524299579393115
1731517656818411300,7.071411376953125,-1.4477116676717996,-1.250256227812916,-0.3149375811515376
1731517656828458200,7.081458251953125,-1.0026894340902566,-0.9874468567728996,-0.3905510405404493
1731517656838506500,7.091506591796875,-0.870413299497962,-0.6722559949800372,-0.39557259502951053
1731517656848553500,7.101553466796875,-1.175511514082551,-0.33532121115177865,-0.24783165520392356
1731517656858601200,7.111601318359375,-1.566239262896776,0.06495631016567349,0.0005967603167518973
1731517656868648200,7.121648193359375,-1.5837819338500498,0.4517493498794734,0.3967025489075109
1731517656878696200,7.1316962890625,-1.0866033965736628,0.7213800913721322,0.9557426817372441
1731517656888743200,7.1417431640625,-0.37703356998264786,0.9019152299597859,1.467401872047782
1731517656898791400,7.15179150390625,0.1988993550568819,1.011668859359622,1.5664188572473823
1731517656908838400,7.16183837890625,0.46232700412571426,0.9711194068282842,1.4065313698910176
1731517656918885000,7.171885009765625,0.475475824034214,0.8020449889317154,0.9988910647206007
1731517656928933400,7.181933349609375,0.38366847795248027,0.6656465137124061,0.40813948686420914
1731517656938980400,7.19198046875,0.4137614183992147,0.6773501032486557,-0.21207060599289834
1731517656949028400,7.2020283203125,0.47368601800799365,0.7577841146618127,-0.5963574715720489
1731517656959075300,7.212075439453125,0.33440497308969497,0.7848153294503688,-0.6255149943321943
1731517656969123300,7.222123291015625,0.04035363769829273,0.8795017380997538,-0.2899329220208339
1731517656979170300,7.23217041015625,-0.19753683453202248,1.079515484139323,0.06024468014230951
1731517656989218300,7.24221826171875,-0.13706746052205562,1.3317197284042834,0.18561803134251384
1731517656999265300,7.252265380859375,0.3117471510797739,1.4173209133222697,0.13427611277047544
1731517657009313300,7.262313232421875,1.0165227291315793,1.3462144099637865,0.039085937583725895
1731517657019360300,7.2723603515625,1.7097627676904201,1.1591270732536911,0.012474884436000137
1731517657029407200,7.2824072265625,2.1159785930156705,1.040494264088571,-0.07683730209544301
1731517657039455200,7.292455322265625,2.5862194390058515,1.0733666061207652,-0.19822218644767997
1731517657049502500,7.30250244140625,2.916158664858341,0.9825786662146448,-0.14639859443907624
1731517657059550200,7.31255029296875,3.00314428987205,0.7967465902626514,-0.11058785173427313
1731517657069597200,7.32259716796875,3.0992268290549516,0.5781868414461613,0.03135900572664104
1731517657079645200,7.332645263671875,3.1601901240617036,0.4799608604937792,0.1836796106258407
1731517657089692400,7.3426923828125,3.157001557153463,0.4262269322186708,0.323718816967681
1731517657099740200,7.352740234375,3.080586425992846,0.36284371658861636,0.33186409296784547
1731517657109787100,7.362787109375,2.772458049932122,0.2857125461131334,0.145815917446604
1731517657119835400,7.37283544921875,2.2681746490865944,0.15103782594650983,-0.044917182754166424
1731517657129882400,7.38288232421875,1.7963468261659143,0.09285597835183143,-0.126527845864417
1731517657139929300,7.392929443359375,1.4949059650450944,0.08842237981855869,-0.060251137282559646
1731517657149977000,7.40297705078125,1.3180980302870273,0.07353519181013107,0.09337667775768786
1731517657160024000,7.413024169921875,1.2957891678452491,-0.12196604524105786,0.1552289026944898
1731517657170072300,7.423072265625,1.3471785788208246,-0.4431640384942293,0.09706475515328347
1731517657180119300,7.433119384765625,1.4683318463742732,-0.7512184725359082,0.02442100945727434
1731517657190167300,7.443167236328125,1.529599677285552,-0.9748998021498322,-0.07811539573986083
1731517657200214300,7.45321435546875,1.4078770854115485,-1.103535242152214,-0.07379281069985591
1731517657210262300,7.46326220703125,0.9471019869029521,-1.178094516313076,-0.03739716251287609
1731517657220309200,7.473309326171875,0.1423053611755371,-1.1723273310884832,0.0701509151001228
1731517657230357200,7.483357177734375,-0.6271469794481992,-1.0084560347929596,0.11120769153251311
1731517657240404500,7.493404541015625,-1.7106757908821104,-0.9259767812877893,0.1402969530957285
1731517657250451200,7.503451171875,-3.028521892234683,-0.7914715724691748,0.12642136241579427
1731517657260499200,7.513499267578125,-4.116117222455144,-0.6028703240647911,0.15171247380506248
1731517657270546200,7.523546142578125,-4.722552837786078,-0.4307952630475163,0.1374977234317921
1731517657280594400,7.533594482421875,-4.649276004651188,-0.22631460072696208,0.08922760438737459
1731517657290641400,7.543641357421875,-3.8271050502747297,-0.13428133693486452,0.02258970237688627
1731517657300689200,7.553689208984375,-2.9546576146006585,-0.24204729964882135,0.11463741938602179
1731517657310736100,7.563736083984375,-2.327586622998118,-0.5307499674886464,0.15978733318382873
1731517657320784400,7.573784423828125,-1.812578999042511,-0.7477399827703833,0.14576236062846146
1731517657330831400,7.583831298828125,-1.3532365636855364,-0.7480904036432504,0.09889838205492123
1731517657340879000,7.593879150390625,-0.887280263146758,-0.6847571646347641,-0.12377101230379194
1731517657350926000,7.603926025390625,-0.38215456625819205,-0.5597378693029285,-0.36963078291285784
1731517657360973300,7.613973388671875,-0.07754501197338104,-0.3767690738275647,-0.6035581601984799
1731517657371021300,7.624021240234375,-0.5318816018670797,-0.08321925821751355,-0.8021482301104813
1731517657381068300,7.634068359375,-1.869642364001274,0.341499315264821,-0.9409944638080895
1731517657391116300,7.6441162109375,-3.1671149548888207,0.8328653668701648,-0.9315560427248477
1731517657401163300,7.654163330078125,-3.7879192873120306,1.2469082325592635,-0.527309398580715
1731517657411211300,7.664211181640625,-3.3489024316251275,1.4410887424007057,0.19101064763367176
1731517657421258200,7.67425830078125,-1.7898510344058274,1.277303370822966,0.7858698800045997
1731517657431306200,7.68430615234375,-0.030942250752449035,0.9259498932808637,0.9840950621269643
1731517657441353200,7.694353271484375,1.3188053017735482,0.5932233747974037,0.6618008711349219
1731517657451401200,7.704401123046875,2.2070716533482075,0.37730946431457996,-0.17111960518965497
1731517657461448200,7.7144482421875,2.421891631114483,0.2993170008346438,-0.9287966610141098
1731517657471495400,7.724495361328125,1.7072317879080772,0.3601505319818854,-1.3967891435556112
1731517657481543400,7.73454345703125,0.3671978201448917,0.45105274591743943,-1.4273654836051166
1731517657491590100,7.744590087890625,-0.6415320631533861,0.6672308602944016,-0.9936657312877476
1731517657501638100,7.75463818359375,-1.2524258269369601,0.8659428760856389,-0.44921058864947405
1731517657511685400,7.764685302734375,-1.245752925044298,0.9520911734923719,0.02184785276732873
1731517657521733400,7.7747333984375,-0.4487175809681415,0.8894704666674137,0.1681515126316808
1731517657531780400,7.7847802734375,0.9565548749029635,0.6583817834064364,0.014482602962641975
1731517657541828000,7.794828125,2.163597837802768,0.21072043349295852,-0.2108740896847099
1731517657551875300,7.804875244140625,2.8923534263789654,-0.19832856943160293,-0.3138610379612073
1731517657561923300,7.81492333984375,3.2399814536571503,-0.365710796457529,-0.3128386726435274
1731517657571970300,7.82497021484375,3.1944764245450497,-0.38099341352432964,-0.11097200134680606
1731517657582017300,7.835017333984375,2.919403930389881,-0.22151596827358006,0.2157220959714614
1731517657592065300,7.845065185546875,2.5885809074401855,-0.03765869952589273,0.5499724082224071
1731517657602112300,7.8551123046875,2.3812217670738693,0.05357902997434139,0.7208777678731828
1731517657612160300,7.86516015625,2.379027471899986,0.010172726707160473,0.7073433827131986
1731517657622207200,7.875207275390625,2.629572258520126,-0.1378442901134491,0.5611540927764028
1731517657632255200,7.885255126953125,3.044415042415261,-0.30351649835109706,0.4147730065945536
1731517657642302200,7.89530224609375,3.310226956272125,-0.47923459204584357,0.31413941651117055
1731517657652350200,7.90535009765625,3.3708594118893145,-0.6548229218810796,0.23913599704569205
1731517657662397400,7.9153974609375,3.1856437142699954,-0.7978624425500631,0.31065215891730036
1731517657672445200,7.925445068359375,2.8382863206267355,-0.8608060977190732,0.5686249401137232
1731517657682492200,7.9354921875,2.4882149918496608,-0.8458508129104971,0.8221166669059544
1731517657692539100,7.9455390625,2.1949784799724816,-0.8585311385244131,0.9829527602240443
1731517657702587400,7.95558740234375,1.9879121850728987,-0.9270119695544242,1.098442375992611
1731517657712634400,7.96563427734375,1.6496084509789943,-1.0735577447786926,1.0290984253272413
1731517657722682000,7.97568212890625,1.137729772698879,-1.2213809925928711,0.8256152496114373
1731517657732729000,7.98572900390625,0.4068593839257955,-1.2186463069319724,0.5855419169167057
1731517657742777300,7.99577734375,-0.32149872976541516,-1.0561977369159459,0.4662225137269124
1731517657752824300,8.00582421875,-0.9710404963731765,-0.991629403154552,0.39392051697354763
1731517657762872300,8.015872314453125,-1.5011509969145058,-1.0993956581294535,0.4863621423708275
1731517657772919300,8.025919189453125,-1.9130805237114428,-1.2229998259663581,0.727954793587327
1731517657782967300,8.03596728515625,-2.1570535307258365,-1.2447791115760802,0.92568174386397
1731517657793014300,8.04601416015625,-2.3186247333854437,-1.1794345327451825,1.11426647952497
1731517657803061200,8.056061279296875,-2.4536253245055675,-1.0908034786120056,1.2644741382576525
1731517657813109200,8.066109130859376,-2.4490835894227025,-0.9780340085223317,1.345618782158196
1731517657823156500,8.076156494140625,-2.410278934732079,-0.884318782992661,1.34054294019863
1731517657833204200,8.086204345703125,-2.3996850600034,-0.9066942809298634,1.1783702645145355
1731517657843251200,8.096251220703126,-2.471004329329729,-1.0710481000453234,0.9858909325677901
1731517657853299500,8.106299560546875,-2.5778520081549883,-1.1054548120379448,0.8091560630459338
1731517657863346400,8.116346435546875,-2.7582302026152608,-1.062527524459362,0.49910614433810113
1731517657873394700,8.126394775390626,-3.0807705503880976,-0.9663812723904848,0.1641140920754522
1731517657883441700,8.136441650390625,-3.592874269595742,-0.729310592110455,0.003589256663620472
1731517657893490000,8.146489990234375,-4.413120393389463,-0.25858985364884135,-0.11424473027400672
1731517657903537000,8.156536865234376,-5.316985296112299,0.403048301205039,-0.3243809341382235
1731517657913583900,8.166583984375,-6.117726508969068,0.9769339383259416,-0.3721639181196689
1731517657923631600,8.176631591796875,-6.265719268131256,1.3732444557085632,-0.1133824874214828
1731517657933678600,8.1866787109375,-5.101993468910456,1.5997919884085654,0.029692323756590484
1731517657943726800,8.196726806640624,-2.9538141495138404,1.3394438929155468,0.07485723419412971
1731517657953773800,8.20677392578125,-0.9260375715643167,0.6657318539083004,0.006137406776472926
1731517657963821600,8.216821533203126,0.8962783931165933,0.22717998538464307,-0.22662768526412547
1731517657973868800,8.226868896484374,2.14850489808917,0.07137596794962883,-0.5561356070272624
1731517657983916800,8.236916748046875,2.668752760785818,0.06263970378637314,-0.8712536958448588
1731517657993963800,8.2469638671875,2.36812906126678,0.11497750152796506,-1.134335746346414
1731517658004010800,8.2570107421875,1.1092612185835837,0.3732821084946394,-1.0793914924334733
1731517658014058800,8.267058837890625,-0.12914894248247147,0.9341127414703368,-0.8072641118194908
1731517658024105700,8.277105712890625,-0.79766312058568,1.5248893076375125,-0.413161260548979
1731517658034153700,8.28715380859375,-0.9555945054382086,1.8607652300626039,0.01097147586941719
1731517658044200700,8.29720068359375,-0.4851256959110498,1.9448475348502396,0.16043781471550464
1731517658054248700,8.307248779296875,0.5717167686492204,1.8617580404922365,0.06010558219887316
1731517658064295700,8.317295654296874,1.7021072845011949,1.630459221611917,-0.1620241340588778
1731517658074343700,8.32734375,2.534065473398566,1.4559741768434642,-0.42259507852233946
1731517658084390700,8.337390625,3.1700013239800926,1.4060478241577743,-0.6483253034900873
1731517658094439000,8.34743896484375,3.6341204722195863,1.3629244294852016,-0.7924275580197572
1731517658104485600,8.357485595703125,3.8963673870712516,1.2988421256750822,-0.873430601492524
1731517658114532600,8.36753271484375,3.771916247016191,1.1712085561916232,-0.8393347820799797
1731517658124580600,8.37758056640625,3.3445769696414467,1.0774696575254201,-0.8510249276127666
1731517658134627800,8.3876279296875,3.0532728871315715,1.0752163256406784,-0.9840541455946862
1731517658144675800,8.39767578125,3.0024679980456828,1.038185694885254,-1.0842407590955496
1731517658154722800,8.407722900390626,3.068067720681429,0.851261439782381,-1.1669396467007696
1731517658164770800,8.417770751953125,3.1863007168740034,0.652720396643877,-1.172184415486455
1731517658174817800,8.42781787109375,3.407091585743427,0.5650760154604911,-1.0768265373162924
1731517658184865800,8.43786572265625,3.567099776870012,0.4517912893250584,-0.943981078403443
1731517658194912800,8.447912841796875,3.5296032821685075,0.2575280696362257,-0.7479950535099953
1731517658204960800,8.457960693359375,3.2832799126356838,0.026910511018335817,-0.39721495540905744
1731517658215007700,8.4680078125,2.9350872372120618,-0.14923077652454375,-0.058542954258341336
1731517658225054700,8.4780546875,2.6401298928916455,-0.21760960848480462,0.20032436462501063
1731517658235102700,8.488102783203125,2.3627193111777305,-0.25668869620263574,0.277527084233053
1731517658245149700,8.498149658203126,2.038629980397224,-0.35949820555299516,0.3145524908240884
1731517658255197700,8.50819775390625,1.5297043067038059,-0.5351853195875883,0.34462230612356215
1731517658265244700,8.51824462890625,0.7275047117322683,-0.6897764541015029,0.2668812053225003
1731517658275292700,8.528292724609376,-0.3349053238272667,-0.7272486911445856,0.17121237977333364
1731517658285340000,8.53833984375,-1.4802204370886087,-0.7108499295294285,0.057180579863954334
1731517658295387600,8.5483876953125,-2.571063955450058,-0.6195894036754965,-0.10355184301710688
1731517658305434600,8.5584345703125,-3.3962305845111604,-0.5530129449620843,-0.19583072473388163
1731517658315481600,8.568481689453124,-3.7572768962889906,-0.49026335106045005,-0.1748013441760093
1731517658325529900,8.57852978515625,-3.5900773323535917,-0.4404541950136423,0.010888994350889697
1731517658335576800,8.588576904296875,-3.093306206834316,-0.404350031453371,0.33733488906174897
1731517658345624600,8.59862451171875,-2.7583915306568145,-0.36627924399524925,0.5943275001144036
1731517658355671600,8.608671630859375,-2.874931166934967,-0.41915421735346314,0.7493312705498189
1731517658365719800,8.6187197265625,-3.1945582576096054,-0.5345186723724007,0.7624013261336833
1731517658375766800,8.628766845703124,-3.2530542857199904,-0.6241326000630856,0.651455418209359
1731517658385814800,8.638814697265625,-3.0273218687951564,-0.6922676863953471,0.44673831678442655
1731517658395861500,8.648861572265625,-2.624798468247056,-0.7945239457771182,0.2707220255943946
1731517658405909800,8.65890966796875,-2.1868308293521403,-0.7686293338030576,0.06587019187388941
1731517658415956700,8.668956787109375,-2.2839695995897054,-0.5515431646704674,-0.16312957455012947
1731517658426003700,8.679003662109375,-3.531442772555351,-0.11718874783664941,-0.5652092864513397
1731517658436052000,8.689052001953126,-5.0800066780298945,0.40419221054315563,-0.8250486287046224
1731517658446098700,8.6990986328125,-5.773190017965436,0.8355325402528047,-0.659400897321105
1731517658456146700,8.709146728515625,-5.261396095359325,1.0035419592663646,-0.14142238606223836
1731517658466193700,8.719193603515626,-3.3612837742924686,0.6196823426559567,0.17272546948371453
1731517658476242000,8.729241943359375,-1.1220295147418975,0.025861001965403554,0.11648196954047307
1731517658486289000,8.739288818359375,0.9418564874649047,-0.4408808959931135,-0.37549737339131534
1731517658496336600,8.749336669921876,2.501080903163552,-0.6095467330887914,-1.0782928835418075
1731517658506383600,8.759383544921874,3.1711393880993124,-0.5510778852462769,-1.6752112403996289
1731517658516430600,8.7694306640625,2.629016962724924,-0.5110872356414795,-1.9942419726163148
1731517658526478800,8.779478759765626,1.1608487824797629,-0.20762392878234384,-1.8124898594543337
1731517658536525800,8.78952587890625,0.07653378910422325,0.4532555166587233,-1.2430457119122147
1731517658546573600,8.799573486328125,-0.715422059750557,0.9122077836543321,-0.6828935627199709
1731517658556620800,8.809620849609376,-1.0276081867694855,1.060705569729209,-0.21342443175464867
1731517658566668800,8.819668701171874,-0.48185237332880493,1.0714522969320417,0.03120943205496296
1731517658576715800,8.8297158203125,0.6982435459345578,0.9787827810630202,-0.020297148160031066
1731517658586763500,8.839763427734376,1.9650760838866232,0.7610919240355491,-0.18524654941530896
1731517658596810800,8.849810791015624,2.7264175987690686,0.4937295658662915,-0.33414719893634315
1731517658606858800,8.859858642578125,3.0393717875510453,0.3182575558871031,-0.43545298919286574
1731517658616905700,8.86990576171875,2.977044802975654,0.3309866890788078,-0.4111266494488343
1731517658626952700,8.87995263671875,2.8621587791234253,0.5113169527441263,-0.13412724235169587
1731517658637000700,8.890000732421875,2.7823440686523915,0.515342262737453,0.17865977316983042
1731517658647047700,8.900047607421875,2.708410232913494,0.35847383094131946,0.3524841620724648
1731517658657095700,8.910095703125,2.8851550393074747,0.2792234763547778,0.3361958750944584
1731517658667142700,8.920142578125,3.3508068039417265,0.24248013810813426,0.17283183420132844
1731517658677190700,8.930190673828125,3.889924786803126,-0.0019108020573854446,0.011297712149098514
1731517658687237600,8.940237548828126,4.133340744456649,-0.37696371961683034,-0.07906498808227479
1731517658697285600,8.95028564453125,4.2350598282217975,-0.7121268175974488,-0.16999460148140788
1731517658707332900,8.960332763671875,4.264957538357377,-0.9342936509951949,-0.17496939421929417
1731517658717379800,8.9703798828125,3.860377789801359,-1.0734820491939783,0.06181421274766326
1731517658727427800,8.980427734375,3.2012732450783252,-1.0391782130539418,0.3403037488047033
1731517658737474600,8.990474609375,2.5577181516647336,-0.7801660423398017,0.6028115065496414
1731517658747522800,9.000522705078126,2.0680817003309726,-0.5918462412253022,0.7635940430495888
1731517658757569800,9.01056982421875,1.6440876417309045,-0.6259492940962315,0.9122456314466894
1731517658767617800,9.02061767578125,1.1782038219064472,-0.664732905998826,1.0993594908375293
1731517658777664800,9.030664794921876,0.5987427227407693,-0.6517936371877789,1.134104860199988
1731517658787712800,9.040712646484375,-0.0011281272470951079,-0.652882601468265,1.082347931086272
1731517658797759700,9.050759765625,-0.6654331632226705,-0.7329910341888666,0.9077028734505176
1731517658807807700,9.060807861328126,-1.2882353914648295,-0.7916551123425364,0.7242698214642703
1731517658817854700,9.070854736328124,-1.9454870017975567,-0.854064514504373,0.734125883437693
1731517658827902000,9.08090185546875,-2.589592130309343,-0.947650560696423,0.9059720310699194
1731517658837949700,9.09094970703125,-2.928289832156896,-0.9598577158406376,1.199569119887799
1731517658847996700,9.10099658203125,-2.976915039116144,-0.8929805206149816,1.4563098385386168
1731517658858044700,9.111044677734375,-2.8341940828770396,-0.9242094793543219,1.4796464365929365
1731517658868092000,9.121091796875,-2.5979694980323313,-1.057141447506845,1.230551556520164
1731517658878139400,9.131139404296874,-2.30354406863153,-1.2014371057167648,0.961717883689329
1731517658888186600,9.1411865234375,-2.1605822893738744,-1.2875482859835028,0.7280627109412103
1731517658898234600,9.151234619140626,-2.3464041361927985,-1.2247723885968327,0.5144252209577709
1731517658908281600,9.161281494140624,-2.7939497507721183,-0.966533832603693,0.31278292386829853
1731517658918328600,9.17132861328125,-3.4510248354941604,-0.5737319078639149,0.018095117204263805
1731517658928376600,9.18137646484375,-4.225010727894306,-0.08257102344185113,-0.17435133538618683
1731517658938423600,9.191423583984376,-5.216510074928403,0.42194910876899955,-0.35802557571716603
1731517658948471600,9.201471435546875,-5.962870878300071,0.9298071532309055,-0.5154072907976806
1731517658958518500,9.2115185546875,-6.041833940377831,1.215635142417252,-0.45125878988355395
1731517658968566800,9.22156689453125,-4.85384580655992,1.1467688192009926,-0.18074914666451514
1731517658978613500,9.231613525390625,-2.591231714209914,0.8390209668904542,0.23937910335287452
1731517658988661500,9.24166162109375,-0.596138093200326,0.3822048351407051,0.3413045964103192
1731517658998708700,9.251708740234376,0.8721212724596261,-0.05435352147817611,-0.306482435484603
1731517659008755700,9.261755615234375,1.2635346654504538,-0.06925503027290106,-0.10269556411448866
1731517659018803700,9.2718037109375,1.2969488592743872,0.31689357405751944,0.36053353995010257
1731517659028850400,9.281850341796876,0.9262170197844505,0.613077829824388,-0.21902298241406679
1731517659038898700,9.291898681640625,-0.09802198281288146,0.8032096487969159,-0.09373564726319164
1731517659048945700,9.301945556640625,-0.8556950383156537,1.087919447608292,-0.0413161260548979
1731517659058993700,9.31199365234375,-1.1183441042274236,1.3573556894421577,-0.16392127291709183
1731517659069040600,9.32204052734375,-0.8901035038739442,1.5586963001713157,-0.17810162783041594
1731517659079088600,9.332088623046875,-0.1786298894882202,1.5856386676326393,-0.13043741139043122
1731517659089135600,9.342135498046876,0.6551414863109588,1.4293608952060342,-0.1886950824339874
1731517659099183600,9.35218359375,1.282823887810111,1.1851838900521396,-0.27674665617877614
1731517659109230600,9.362230712890625,1.7129074954569339,1.0632838957846165,-0.3122460405126214
1731517659119277800,9.37227783203125,2.176490052601695,1.0117039306730031,-0.3211534234590828
1731517659129325600,9.38232568359375,2.5534476347386836,0.9718366151869297,-0.26645702509367836
1731517659139372500,9.39237255859375,2.9433284113347526,0.9442205862477421,-0.19574335697768255
1731517659149420500,9.402420654296876,3.135164988398552,0.9462190665885806,-0.04695880811698735
1731517659159467800,9.4124677734375,3.1154636781066656,0.9108470166951418,-0.0003214139740914106
1731517659169515500,9.422515625,2.9835195519477127,0.9299053529083728,-0.009350286142062396
1731517659179562500,9.4325625,2.8600860645025965,0.9398729124322533,-0.015667214203905315
1731517659189610800,9.44261083984375,2.856777086085081,0.9159609987080096,-0.08165033753351308
1731517659199657700,9.45265771484375,2.9496289727836844,0.7943634945183992,-0.12381760052503087
1731517659209704700,9.46270458984375,3.1329034732073544,0.6496677310749888,-0.1324860510159284
1731517659219752400,9.47275244140625,3.3988235236138102,0.5262967874720692,-0.10981316843419335
1731517659229799400,9.48279931640625,3.5844460484683514,0.35975334935784337,-0.18997089278977364
1731517659239847700,9.49284765625,3.60649246058166,0.16507102747410535,-0.24306714421585202
1731517659249894700,9.502894775390626,3.4312937145859,-0.07036065342724322,-0.14581056541805154
1731517659259942700,9.512942626953125,3.0195296074837445,-0.24361352605223655,0.005157871386944316
1731517659269989400,9.5229892578125,2.4397271475344895,-0.32069705799371,0.2826723381670192
1731517659280037600,9.53303759765625,1.7906389699131249,-0.36717239344269037,0.5612271945452317
1731517659290084600,9.543084716796875,1.254052551355958,-0.24114976628720758,0.7038133088909089
1731517659300132600,9.553132568359375,0.5958522619962692,-0.18412497977316378,0.9000441023256629
1731517659310179600,9.5631796875,0.029424247404932973,-0.25222294896543024,1.0469046425875275
1731517659320226600,9.5732265625,-0.4457721751660108,-0.3562780744627118,1.1071923033550382
1731517659330274600,9.583274658203125,-0.972266823297739,-0.422774453677237,1.0450954012084752
1731517659340321500,9.593321533203126,-1.356072079372406,-0.40258477534651754,0.8057431858625262
1731517659350369800,9.603369873046875,-1.6576327674806117,-0.39795302389264103,0.45973187306597824
1731517659360416800,9.613416748046875,-2.0927286503314972,-0.41921413084715603,0.17930121287852524
1731517659370464500,9.623464599609376,-2.579932906082272,-0.43714200172573325,0.0478626159557607
1731517659380511500,9.633511474609374,-3.188276400861144,-0.3912076412856579,0.20669450244512408
1731517659390558700,9.643558837890625,-3.805815009486675,-0.3735580028265714,0.4745469456862658
1731517659400606700,9.653606689453126,-4.123401534244418,-0.48400312162190673,0.7182165858399122
1731517659410653700,9.66365380859375,-3.661791738477349,-0.6367793156683444,0.942531683312729
1731517659420701400,9.673701416015625,-2.746574251613021,-0.9058835490688681,1.1007745452672242
1731517659430748700,9.683748779296875,-2.239079487505555,-1.2460390485092996,1.1759661990474908
1731517659440796700,9.693796630859374,-2.2722698094457385,-1.2384899483039975,0.9438573789585382
1731517659450843600,9.70384375,-3.015711510500312,-0.9343217080458999,0.2075769478354603
1731517659460891600,9.7138916015625,-5.042357038593292,-0.30546310237422586,-0.6127893682718276
1731517659470938600,9.723938720703124,-7.22326081598401,0.7305277128152549,-0.9357254373639822
1731517659480986600,9.733986572265625,-8.847240904709697,1.5754073426060378,-0.7384582866188139
1731517659491033600,9.74403369140625,-8.920869620022177,1.87123518615067,-0.1897811971702613
1731517659501080600,9.75408056640625,-6.549249794030189,1.7714176982231438,0.3705530488569289
1731517659511128600,9.764128662109375,-3.1275252873003483,1.0944599552929402,0.49544670851510014
1731517659521175600,9.774175537109375,-0.10606851114630698,0.22413725668787954,0.12469015470901504
1731517659531223600,9.7842236328125,2.4979127945214508,-0.2785664737507701,-0.8136237099792808
1731517659541270500,9.7942705078125,4.06157314684093,-0.6518441983312367,-1.6570638815514742
1731517659551318500,9.804318603515625,4.545206558367609,-0.8053621506556868,-2.2140648732364174
1731517659561365500,9.814365478515626,4.189033405584096,-0.6473980325773357,-2.3951459552690384
1731517659571413500,9.82441357421875,2.960959929615259,-0.25224165366590023,-1.885659871213883
1731517659581460700,9.834460693359375,1.7398036856889725,0.4328784990623593,-0.973626786539331
1731517659591507700,9.8445078125,0.8018675865381956,1.0749328325241803,-0.14850244398368523
1731517659601555700,9.8545556640625,0.20396306818723678,1.4424857497170567,0.2501557873025536
1731517659611602400,9.8646025390625,0.2553670922100544,1.483849148979783,0.39802039004042744
1731517659621650700,9.874650634765626,0.9220622381925583,1.307751408317685,0.3232903989551589
1731517659631697700,9.88469775390625,2.038404939469695,0.9879027838468551,0.15937639602907
1731517659641745700,9.89474560546875,3.1705028437614438,0.6200087981313467,0.009286472791386767
1731517659651792600,9.904792724609376,3.86554262521863,0.3510562481611967,-0.014028927211277187
1731517659661840600,9.914840576171875,4.279193568980694,0.19135843815803527,-0.06775814277864992
1731517659671887600,9.9248876953125,4.303814800018072,0.051825172044336794,0.060438851007539776
1731517659681934600,9.9349345703125,4.000095472571253,0.03751110774874687,0.1563965399680659
1731517659691982600,9.944982666015624,3.6454818241894245,0.16354893247336147,0.3015931473393924
1731517659702029800,9.95502978515625,3.2386861531496045,0.1723144227311015,0.4833374973200261
1731517659712077600,9.96507763671875,2.9930186171770092,0.13577040644884109,0.5808728291271255
1731517659722124500,9.97512451171875,3.0192279941886664,0.07632686835527419,0.6820388455867767
1731517659732172500,9.985172607421875,3.1773651307463644,-0.06714578303396701,0.7302463385906071
1731517659742219800,9.9952197265625,3.367449311184883,-0.31073914308100936,0.7536082172166556
1731517659752267500,10.005267578125,3.2645208516299724,-0.666679948413372,0.5810348147558048
1731517659762314500,10.015314453125,2.9396868399620053,-0.8976672171264887,0.40589678597133605
1731517659772361500,10.025361572265625,2.4933704749166963,-0.9686924719423055,0.4199966229943558
1731517659782409700,10.03540966796875,1.9826497345000504,-1.0710755725741385,0.47810021772105243
1731517659792456700,10.045456787109375,1.4063573284983635,-1.1008633925944566,0.5529949343813583
1731517659802504400,10.05550439453125,0.858022019958496,-0.9967924850061535,0.6621225773699582
1731517659812551400,10.065551513671876,0.33580022684037686,-0.8806701973572373,0.8929841738767922
1731517659822599700,10.075599609375,-0.050825931873917575,-0.7836109220966696,1.1680284648507833
1731517659832646700,10.085646728515625,-0.37412849619090555,-0.7471805953219532,1.4317512974739073
1731517659842694400,10.0956943359375,-0.7726508444041014,-0.6594923749968409,1.5805156255304813
1731517659852741600,10.10574169921875,-1.363589615395665,-0.6235194366008043,1.754229978187382
1731517659862788600,10.11578857421875,-2.018094557368755,-0.7014499407604337,1.8297240489803253
1731517659872836600,10.125836669921876,-2.546346862822771,-0.8037249048426747,1.864280252446234
1731517659882883600,10.135883544921874,-2.8069407497704026,-0.8133449661031364,1.838096740528196
1731517659892931600,10.145931640625,-2.861704021093249,-0.6973176632612943,1.6257476829200983
1731517659902978300,10.155978271484376,-3.0020190852344033,-0.6171618842676282,1.247596945475787
1731517659913026600,10.166026611328125,-3.23903043654263,-0.7962561763972044,0.8699036694753914
1731517659923073500,10.176073486328125,-3.361577788802981,-1.0120245409294961,0.5854794826723635
1731517659933121500,10.18612158203125,-3.5516233907967805,-1.1139338865697384,0.3132935037389397
1731517659943168800,10.196168701171874,-3.804022865372896,-1.1309420122548937,-0.09101093500703572
1731517659953215500,10.206215576171875,-4.074055027273297,-1.0170490910932422,-0.4560298767428845
1731517659963263500,10.216263427734376,-4.513409152090549,-0.7526373994231224,-0.6391759284812957
1731517659973310500,10.226310546875,-4.989259654656053,-0.2828346525892615,-0.7217246670261025
1731517659983358700,10.236358642578125,-5.168373528268933,0.3316542130768299,-0.7319875562347471
1731517659993405700,10.24640576171875,-4.805813304796815,0.8085355199947952,-0.5907983396075666
1731517660003453400,10.256453369140624,-3.8144004670023914,0.989221465229988,-0.22321941119059918
1731517660013500400,10.26650048828125,-2.433887189334631,0.8715323666557669,0.03282587254196405
1731517660023548700,10.276548583984376,-0.9350357015341519,0.5718021088451146,0.17578290255926549
1731517660033595600,10.286595703125,0.45225919909775253,0.3435483567491174,0.22526377649977802
1731517660043642600,10.296642578125,1.339164199191332,0.19804799892455338,0.07625592201091348
1731517660053690400,10.3066904296875,1.5046768329530953,0.07170066985934972,-0.3222013250768184
1731517660063737600,10.316737548828126,0.8656243116557598,0.07678717934340239,-0.7125192509811371
1731517660073785600,10.32678564453125,-0.07338906133770942,0.36844168272614475,-0.967083502375707
1731517660083832600,10.33683251953125,-0.500233833193779,0.8738479501217603,-0.8824147029370069
1731517660093880300,10.34688037109375,-0.5023246679931879,1.2775044463530183,-0.6749597009807825
1731517660103927600,10.356927490234375,-0.23268121314942836,1.3985206435233353,-0.555515758095868
1731517660113975600,10.3669755859375,0.4165297140687704,1.3587383759722114,-0.46837165458481755
1731517660124022500,10.3770224609375,1.1789631158411502,1.2900140915751457,-0.3879466667283326
1731517660134069500,10.387069580078125,1.7416776628673076,1.2000219782218335,-0.4360607458276674
1731517660144117500,10.397117431640625,2.028997644177079,1.1634490281060337,-0.5370085894919931
1731517660154164500,10.40716455078125,2.1045371615469453,1.0473846081241964,-0.6678899087250232
1731517660164212500,10.41721240234375,2.0496476334959266,0.9813239899784326,-0.6745875066675245
1731517660174259500,10.427259521484375,1.8778852916896343,1.0079007389977575,-0.6570997807718812
1731517660184307500,10.437307373046876,1.6676684238046406,0.9846139714345336,-0.6431524308968335
1731517660194354400,10.4473544921875,1.5421201361626387,0.9405568030431866,-0.7334572634611278
1731517660204402400,10.45740234375,1.7036229497611521,0.9229486656382679,-0.9749701639723032
1731517660214449400,10.467449462890626,2.0234259815245865,0.8100061770692467,-1.154202914724499
1731517660224496600,10.47749658203125,2.532428227585554,0.5929965803042054,-1.2599920244075358
1731517660234544600,10.487544677734375,3.0235990488797424,0.2843205072328448,-1.2974331356599926
1731517660244591400,10.49759130859375,3.3246102864116427,0.07639934906959533,-1.1868442975450306
1731517660254639600,10.5076396484375,3.5595921777188777,-0.006628185968101024,-1.0083394226759672
1731517660264686600,10.5176865234375,3.5834418398618695,-0.09551759877651929,-0.6515159892901777
1731517660274734600,10.527734619140626,3.2891426671892403,-0.2166273194491863,-0.24166648363769053
1731517660284781600,10.537781494140624,2.8236194973707196,-0.2459638885706663,0.18740422063954174
1731517660294829600,10.54782958984375,2.291366724103689,-0.2496633276104927,0.5263737982310355
1731517660304876500,10.55787646484375,1.9014029453992842,-0.16978052033931015,0.6138641578964888
1731517660314923500,10.567923583984374,1.5879513284891842,-0.11341595129966735,0.5885050775712356
1731517660324971500,10.577971435546875,1.113964281708002,-0.18155542154610155,0.5073058904718607
1731517660335018800,10.588018798828125,0.3525912026435137,-0.33077275406718254,0.3220168353553861
1731517660345066500,10.59806640625,-0.4006166901439428,-0.4762526536256075,0.23422793113477527
1731517660355113500,10.608113525390625,-1.0460989522278308,-0.5028536603033542,0.1450428598480299
1731517660365161500,10.618161376953125,-1.4217027816683052,-0.38082594800293446,0.032849700942123305
1731517660375208700,10.628208740234374,-1.6413053175359964,-0.2812386155694723,0.06355152596824336
1731517660385256400,10.63825634765625,-1.7234814964413643,-0.2657464474052191,0.09353859032113104
1731517660395303400,10.648303466796875,-1.9011691366434096,-0.25279636493921276,0.13291684364862738
1731517660405350400,10.658350341796876,-2.1894372124582526,-0.17974866438508033,0.19804613576103
1731517660415398700,10.668398681640625,-2.3657331060409543,-0.09346388111710548,0.28169143737088886
1731517660425445600,10.678445556640625,-2.6017104381263256,-0.1672533399492502,0.3290376008376479
1731517660435493400,10.688493408203126,-2.6048621801555156,-0.3103624187231064,0.40987168095167725
1731517660445540400,10.698540283203124,-2.2355887227803466,-0.31548721439093347,0.45554965547788884
1731517660455588600,10.708588623046875,-1.8884125309228896,-0.2305442011207342,0.5402001155423
1731517660465635600,10.718635498046876,-1.899879681354761,-0.27872487918287514,0.3333127939388156
1731517660475683300,10.728683349609375,-2.305436165988445,-0.22038374937325714,-0.209434467069339
1731517660485730300,10.738730224609375,-3.060561875095963,0.019891572166979312,-0.7951073716882616
1731517660495777500,10.748777587890626,-3.848457050383091,0.32032910146415233,-1.1704692090664057
1731517660505825500,10.758825439453124,-4.339713211873174,0.65710694116503,-1.3348406369037926
1731517660515872500,10.76887255859375,-4.395824975195527,1.0576754082530737,-1.1039773598965257
1731517660525920500,10.77892041015625,-3.5521564747601744,1.2279296835839748,-0.5411994653105735
1731517660535967500,10.788967529296874,-1.8981822297871112,1.0710998302325605,0.10501984234359114
1731517660546015500,10.799015380859375,-0.11315116288363933,0.6624509325414896,0.33783564165811986
1731517660556062500,10.8090625,1.5227765532672404,0.3008203911349177,0.06894269465440883
1731517660566110700,10.81911083984375,2.6499147893249986,-0.013504793739318847,-0.3635919046074152
1731517660576157700,10.82915771484375,2.8454648339539763,-0.20363135201483964,-0.8236316015135496
1731517660586204400,10.839204345703125,1.9668793339163064,-0.2117880627244711,-1.1677437296252697
1731517660596252400,10.84925244140625,0.6526140136599541,0.1150324465855956,-1.2834379280552268
1731517660606299600,10.859299560546875,-0.13886018915772438,0.47443595959246154,-1.0262423783089965
1731517660616347600,10.86934765625,-0.5012719440698623,0.6476897090002894,-0.5945367224182934
1731517660626394600,10.87939453125,-0.2556932554244995,0.6154965814039111,-0.216940513584204
1731517660636442400,10.8894423828125,0.5727823520541191,0.4882613635882735,-0.12938381068427116
1731517660646489600,10.899489501953125,1.5545470715373753,0.2790697470977902,-0.22540976084172723
1731517660656537600,10.90953759765625,2.2066537201970813,0.023406302289664744,-0.318091880463995
1731517660666584600,10.91958447265625,2.4699814160227773,-0.16524930665045975,-0.30437139814738184
1731517660676631600,10.929631591796875,2.524270640093088,-0.2128615371748805,-0.18302346653835846
1731517660686679600,10.939679443359376,2.4186603941082954,-0.13895721979141235,0.03583214168585837
1731517660696726500,10.9497265625,2.1730244223177433,-0.05421849692165851,0.17904367618719114
1731517660706774500,10.9597744140625,1.9938596953004597,0.026387656188011168,0.25708313888031986
1731517660716821500,10.969821533203126,2.0368425124585627,0.0031941198661923405,0.19712818066589533
1731517660726869500,10.979869384765625,2.3193378500908612,-0.12065759299099445,0.14260045339828356
1731517660736916500,10.98991650390625,2.6721967637598514,-0.3913549408018589,0.1672046785019338
1731517660746964500,10.999964599609376,2.897038953846693,-0.7269166827112435,0.14000906693190335
1731517660757011500,11.010011474609374,2.9930034196078776,-1.0751797930225728,0.14137019921727478
1731517660767058700,11.02005859375,2.9560464386105534,-1.3073758530035615,0.22285594817306845
1731517660777106400,11.0301064453125,2.7154718418627977,-1.4296902732908725,0.4024703186539933
1731517660787153400,11.0401533203125,2.253880166274309,-1.4469997200101614,0.6529214721739292
1731517660797201700,11.05020166015625,1.5505132859766482,-1.4297034250333904,0.7209452070862055
1731517660807248600,11.06024853515625,0.8763777608603238,-1.2895853447690606,0.7187064882487059
1731517660817296400,11.07029638671875,0.21632044545710086,-1.1389432401418684,0.6440665500670671
1731517660827343400,11.08034326171875,-0.641959348654747,-1.0738082124084234,0.5480153924031183
1731517660837391600,11.0903916015625,-1.2879653423517943,-1.0059919827669859,0.4713995875712484
1731517660847438600,11.1004384765625,-1.3397417068183421,-0.9068295977473259,0.5586721397675574
1731517660857485600,11.110485595703125,-0.879510798189044,-0.9244088013187051,0.8393395313203335
1731517660867533600,11.120533447265625,-0.5564847127258777,-1.0703031268969179,1.0682007477901876
1731517660877580000,11.130580078125,-0.6195429341852664,-1.1580109287053346,1.14260768093355
1731517660887628000,11.1406279296875,-1.1282196015536785,-1.192667523805797,1.0225789604306221
1731517660897675000,11.150675048828125,-1.7048732420831918,-1.192395428866148,1.0474854381501675
1731517660907723000,11.160722900390626,-2.039503840622306,-1.1265846938282251,1.2238950943056492
1731517660917770000,11.17077001953125,-2.1062141548484563,-0.9481070722922682,1.325086135608703
1731517660927817000,11.18081689453125,-2.0240864912599323,-0.7073410446256398,1.2078365244302898
1731517660937865000,11.190864990234376,-1.9892840579479931,-0.6405009665399789,0.9243639392636716
1731517660947912000,11.200911865234374,-2.101104264488816,-0.7831094023153186,0.8448653090044855
1731517660957960000,11.2109599609375,-2.3623089768111702,-0.8597010590866208,0.7949271197505294
1731517660968007200,11.221007080078126,-2.839111665534973,-0.6929311187401413,0.5701587986174971
1731517660978055000,11.231054931640625,-3.4942911457687615,-0.2818853890404105,0.3140905724007636
1731517660988102000,11.241101806640625,-4.2164983356148005,0.26711627445369956,0.088824165552482
1731517660998150000,11.25114990234375,-4.9060173078238964,0.8327449553608894,0.07508622064441442
1731517661008197000,11.261197021484374,-5.3530175634801385,1.3810565907642245,0.3190652920734137
1731517661018244000,11.271244140625,-4.996242937672138,1.7628116363108157,0.6290553703527897
1731517661028291800,11.281291748046876,-3.558639991560578,1.8217551159277556,0.833152732444182
1731517661038338800,11.2913388671875,-1.7505238171458244,1.4280939440101383,0.749317461220175
1731517661048387000,11.301386962890625,-0.2436801615476608,0.7917235014036297,0.5462874360993504
1731517661058434000,11.31143408203125,0.7459206583887338,0.32695436482280493,0.05373809299357235
1731517661068482000,11.32148193359375,1.0543068086028098,0.12491378913074731,-0.6735800831906497
1731517661078528800,11.33152880859375,0.8556108671635388,0.2044020441263914,-1.3206950610429047
1731517661088577000,11.341576904296875,0.11597323456704615,0.3770110658898949,-1.5949746512547134
1731517661098624000,11.3516240234375,-0.7151409047216176,0.7064578320503234,-1.4633767081849276
1731517661108671000,11.3616708984375,-1.0308025988966225,1.2269877265587448,-1.0631165763936936
1731517661118719000,11.371718994140625,-1.0324883600264787,1.6423030964016914,-0.7711731730669736
1731517661128766000,11.381765869140626,-0.7192009937673807,1.7122084072768686,-0.7304080319583416
1731517661138814000,11.39181396484375,0.11887772383689879,1.5649965693593024,-0.7637357896078377
1731517661148861000,11.40186083984375,1.2369991252243517,1.3839675097748636,-0.779846235800907
1731517661158909200,11.4119091796875,2.0399796414405107,1.2504612488657236,-0.8600090290572494
1731517661168956200,11.4219560546875,2.5761019496172666,1.2430839980959891,-1.0400148830737919
1731517661179004000,11.43200390625,2.968364068391919,1.2892179727613926,-1.101306094860658
1731517661189051000,11.44205078125,3.0008816056370735,1.266713880008459,-0.9867028334725647
1731517661199097900,11.452097900390624,2.615906136739254,1.224337504310906,-0.6636291825406253
1731517661209146000,11.46214599609375,2.160453110036254,1.314700496803224,-0.42055378195308146
1731517661219193000,11.472193115234376,1.8648025227546692,1.4065943521246314,-0.31773228990398344
1731517661229240800,11.48224072265625,1.8165934953808784,1.3572332321062683,-0.367869216600433
1731517661239288000,11.4922880859375,2.0899901652783153,1.1797209484711288,-0.5797287005933002
1731517661249336000,11.502336181640626,2.5907845549643036,0.8791878498449921,-0.8346943358629941
1731517661259383000,11.512383056640624,3.0252105757296084,0.523005344711244,-1.0141237782310695
1731517661269430000,11.522429931640625,3.2473101891100407,0.21958733829855917,-1.066605295292288
1731517661279478000,11.53247802734375,3.241985194694996,-0.02278641682565212,-1.1990388124033808
1731517661289525000,11.54252490234375,3.111441582983732,-0.2426139936208725,-1.2295980551876127
1731517661299573000,11.552572998046875,3.096400081196427,-0.40874154441058635,-1.1431757631450892
1731517661309620000,11.562619873046875,3.0689199535965916,-0.47889673839360475,-0.8028385504622012
1731517661319668000,11.57266796875,2.9043881475657223,-0.5588128634124994,-0.34113892098721116
1731517661329715000,11.58271484375,2.407394319206476,-0.711516576744616,-0.16872180506661533
1731517661339763000,11.592762939453126,1.8440204314887523,-0.7275102646902203,-0.11649550487548112
1731517661349810000,11.602809814453124,1.3770154986798762,-0.6015399522438645,0.06468775888998061
1731517661359857200,11.612857177734375,0.9762491709321737,-0.4733575167059898,0.3272301130242646
1731517661369905000,11.62290478515625,0.4294067312985658,-0.39406858367472886,0.6169080556370318
1731517661379951900,11.632951904296876,-0.3415034069180488,-0.3025055677428841,0.7034954020481556
1731517661389999900,11.642999755859375,-1.1121470031529663,-0.1225745325282216,0.6587510551102459
1731517661400047000,11.653047119140625,-1.6466729820489883,0.07645370960533618,0.5161978566534817
1731517661410095000,11.66309521484375,-2.1664532272338866,0.06993482923060655,0.392682353480719
1731517661420141800,11.673141845703125,-2.588894795694947,-0.11547346835136413,0.35754071480967103
1731517661430190000,11.683190185546875,-2.7841888197362423,-0.20275690726786852,0.340940293142572
1731517661440237000,11.693237060546876,-2.7430238656550645,-0.17981237727105617,0.4200355302326381
1731517661450284000,11.703283935546875,-2.764102894040942,-0.3291580123469233,0.5313879365986213
1731517661460332000,11.71333203125,-2.745135743242502,-0.7285404845207929,0.5915768496993928
1731517661470378800,11.723378662109376,-2.4171289467573165,-1.016387412314117,0.4870294106405228
1731517661480427000,11.733427001953125,-2.15367148707211,-1.0952519824534654,0.25299643582226705
1731517661490474000,11.743473876953125,-2.1385136654287575,-1.0926388773456215,-0.12608113414337857
1731517661500522000,11.75352197265625,-2.3202941279023883,-0.9393366135984659,-0.5879574901584536
1731517661510569200,11.7635693359375,-3.123869687402248,-0.6005199615463614,-0.9547171380817889
1731517661520617000,11.773616943359375,-4.566046517300605,0.007625380311906337,-1.100032786989212
1731517661530664000,11.783663818359376,-5.459597531279921,0.8313295356050133,-0.8829694142103195
1731517661540711000,11.7937109375,-5.755830302363634,1.5063962040916083,-0.08947554213330149
1731517661550759200,11.80375927734375,-5.058279999390244,1.7311521771997211,0.7681747949685901
1731517661560806100,11.81380615234375,-3.152971278724074,1.4719509136542677,1.1240021299891174
1731517661570854000,11.82385400390625,-0.8596960906505584,0.8358589957281947,1.0234719637475906
1731517661580900900,11.83390087890625,1.0914525901705026,0.13398381529301404,0.5443958501990884
1731517661590949000,11.84394921875,2.645985048660636,-0.32767829518318176,-0.2525345356652513
1731517661600996000,11.85399609375,3.5245658725231883,-0.5169155034035444,-0.9227308581691235
1731517661611043000,11.86404296875,3.5312159780621526,-0.6019426878258586,-1.3285349608883261
1731517661621090800,11.8740908203125,2.572022571349144,-0.5015796948447824,-1.2596385347947479
1731517661631138000,11.884137939453124,1.2886515710502862,-0.09923165086358784,-0.8008831786107271
1731517661641186000,11.89418603515625,0.3719558283269405,0.41369536742568014,-0.28804325408302245
1731517661651233000,11.90423291015625,-0.3958709569215774,0.7516369902089238,0.07384977418463677
1731517661661280800,11.91428076171875,-0.7034259170085191,0.9233505244374275,0.23210133090224117
1731517661671328000,11.924327880859375,-0.5059031110018491,0.9785083480358123,0.2696281294104643
1731517661681376000,11.9343759765625,0.08857377098798751,0.8776859208494424,0.24832833441337568
1731517661691423000,11.944423095703126,0.9507540796697139,0.6667869159191846,0.2578862536904402
1731517661701470000,11.954469970703125,1.8425392530202864,0.4562441770806908,0.3531954521469772
1731517661711518000,11.96451806640625,2.520740127879381,0.28621991111338135,0.4957156981822103
1731517661721565000,11.97456494140625,2.927003883999586,0.2562546886995435,0.6733196786887944
1731517661731613000,11.984613037109375,3.2160055347859857,0.25428981836736203,0.7461147196561098
1731517661741660000,11.994659912109375,3.4151007046759125,0.18068652975708246,0.7575511096235364
1731517661751708000,12.0047080078125,3.515699844500422,0.03252572055160999,0.7279482907813042
1731517661761755000,12.0147548828125,3.5442268508046864,-0.21689473821371794,0.6684686584610492
1731517661771803000,12.024802978515625,3.5365783818781376,-0.46590018643736836,0.6102243035567924
1731517661781850000,12.03485009765625,3.3990807132452723,-0.6582765694662929,0.5004973795007914
1731517661791897000,12.04489697265625,3.2765012122809885,-0.778710875095427,0.4680507520673796
1731517661801945000,12.054945068359375,3.208381031256914,-0.8518520991519093,0.5628794552642852
1731517661811991800,12.06499169921875,2.971463787972927,-0.8959007919758558,0.7229897185258567
1731517661822040000,12.0750400390625,2.562678404420614,-0.9625251814842224,0.7622383906569331
1731517661832087000,12.085087158203125,2.1801351311057804,-0.9766966224387288,0.8727103243939578
1731517661842135000,12.095135009765626,1.9840110859811304,-0.9446598544478416,1.0989596047997474
1731517661852182000,12.10518212890625,1.77533677136302,-0.9315607188999653,1.2834642315402627
1731517661862229000,12.11522900390625,1.3765654168248176,-0.991866134519875,1.2914879635199903
1731517661872277000,12.125277099609375,0.8313011862933635,-1.0735396246001123,1.3182235563628375
1731517661882325000,12.135324951171874,0.3437368650585413,-1.253843584780395,1.3212100248277188
1731517661892372700,12.145372802734375,0.02206803942322731,-1.5082681354433298,1.2182817844685165
1731517661902419700,12.155419677734375,-0.23593057033419607,-1.6032546960830687,1.0210407180126755
1731517661912468000,12.165468017578124,-0.4764619124621153,-1.6963859842449425,0.8439506783775985
1731517661922515000,12.175514892578125,-1.0807786359429359,-1.85899149838835,0.9165854142166674
1731517661932563000,12.18556298828125,-1.8462673336327076,-1.8652236707761882,1.163303555220738
1731517661942609700,12.195609619140624,-2.5925363670676944,-1.6729837736085056,1.4630948225036262
1731517661952656600,12.20565673828125,-3.181730340218544,-1.3503577933788298,1.7690642669647931
1731517661962705000,12.215704833984375,-3.491414129027724,-1.106814117692411,2.043036252532154
1731517661972752000,12.225751953125,-3.394432595178485,-0.9876195829913019,2.1347201183646916
1731517661982800000,12.2357998046875,-3.191345725303888,-0.9004197307050228,2.0044047624513506
1731517661992846800,12.245846923828125,-3.4926275964707134,-0.8621817699864506,1.5317463339254258
1731517662002894800,12.255894775390624,-4.171134760800004,-0.7684314731433988,0.9076089115567505
1731517662012941800,12.26594189453125,-4.8078544552356,-0.4633148461192846,0.45230924878455697
1731517662022989800,12.27598974609375,-5.241150595188141,0.016192425388097762,0.2808351493351161
1731517662033037000,12.286037109375,-5.793281788879632,0.4775041149914264,0.157001337460801
1731517662043084000,12.296083984375,-5.932196338573098,1.1205211560055612,-0.04840440381541848
1731517662053131800,12.3061318359375,-4.963850488111376,1.6408631267264484,-0.0019569792866706848
1731517662063178800,12.3161787109375,-3.3532653030097483,1.6023521942853927,0.24554412878863513
1731517662073227000,12.32622705078125,-1.7453619043380022,1.252265667939186,0.5076723126314581
1731517662083274000,12.33627392578125,-0.3508037347048521,0.974780851945281,0.5610067932602018
1731517662093321700,12.34632177734375,0.5700350991725921,0.8719652051150798,0.24916568028666078
1731517662103368700,12.35636865234375,0.6315402459710836,0.8406485680922865,-0.23743140335120258
1731517662113417000,12.3664169921875,-0.054555181530117985,0.960291431082785,-0.6707379916325211
1731517662123464000,12.3764638671875,-0.8821703727871179,1.2328811685115098,-0.9703055331621319
1731517662133511000,12.386510986328124,-1.1957786415636538,1.4379296938478945,-1.0822720163058488
1731517662143558700,12.39655859375,-1.1244804150253533,1.5151599407836793,-1.0985554809782654
1731517662153606000,12.40660595703125,-0.8351923485130072,1.5000848289877176,-1.1900628942653535
1731517662163654000,12.41665380859375,-0.1504874985873699,1.545286198978126,-1.233344986630976
1731517662173700900,12.426700927734375,0.6825117237955332,1.5333061305880546,-1.1703024741973727
1731517662183748900,12.436748779296876,1.4687667306602001,1.5022989979058503,-1.1119416167739777
1731517662193795800,12.4467958984375,2.259122743102908,1.5160338010087608,-1.1788356170039622
1731517662203842800,12.4568427734375,2.818420759683847,1.4588605459347366,-1.2747463798165322
1731517662213890800,12.466890869140625,3.0640438719928262,1.2674220282778144,-1.3115639523431657
1731517662223937800,12.476937744140624,3.0148505097568035,1.0578002036765217,-1.2817236714832485
1731517662233985800,12.48698583984375,2.6547400175243614,1.0026622538223862,-1.1510036802917718
