time,seconds_elapsed,z,y,x
1731517649766341000,0.019341064453125,-1.0638275146484375,-0.2608184814453125,0.1090240478515625
1731517649776389000,0.02938916015625,-1.0108795166015625,-0.2426605224609375,0.1029052734375
1731517649786436400,0.039436279296875,-0.9962921142578125,-0.2544708251953125,0.094757080078125
1731517649796484400,0.049484375,-1.0069580078125,-0.28240966796875,0.1082763671875
1731517649806531000,0.059531005859375,-0.987396240234375,-0.2829132080078125,0.1079559326171875
1731517649816579300,0.069579345703125,-0.9435882568359375,-0.2488555908203125,0.1485748291015625
1731517649826626300,0.079626220703125,-0.887481689453125,-0.211700439453125,0.2038726806640625
1731517649836674300,0.08967431640625,-0.8728485107421875,-0.2205963134765625,0.259490966796875
1731517649846721300,0.09972119140625,-0.911956787109375,-0.2394866943359375,0.32501220703125
1731517649856769300,0.109769287109375,-0.9756927490234375,-0.2567596435546875,0.3410186767578125
1731517649866816300,0.119816162109375,-0.9708404541015625,-0.2478179931640625,0.278076171875
1731517649876864500,0.129864501953125,-0.9237060546875,-0.247222900390625,0.1979827880859375
1731517649886911500,0.139911376953125,-0.911407470703125,-0.264068603515625,0.1767578125
1731517649896959200,0.149959228515625,-0.8895263671875,-0.333038330078125,0.2524566650390625
1731517649907006500,0.16000634765625,-0.8102569580078125,-0.391754150390625,0.31011962890625
1731517649917054500,0.170054443359375,-0.7218780517578125,-0.4398345947265625,0.3346405029296875
1731517649927101400,0.180101318359375,-0.728363037109375,-0.485198974609375,0.346466064453125
1731517649937149200,0.190149169921875,-0.8279571533203125,-0.50799560546875,0.3008575439453125
1731517649947196400,0.200196533203125,-0.8964385986328125,-0.4663238525390625,0.195892333984375
1731517649957244400,0.210244384765625,-0.916748046875,-0.4128265380859375,0.133056640625
1731517649967291400,0.22029150390625,-0.826416015625,-0.40020751953125,0.073486328125
1731517649977339400,0.23033935546875,-0.7301483154296875,-0.4363861083984375,-0.003387451171875
1731517649987386400,0.240386474609375,-0.663543701171875,-0.4705963134765625,-0.149169921875
1731517649997434400,0.250434326171875,-0.6374053955078125,-0.5664825439453125,-0.1469268798828125
1731517650007481300,0.2604814453125,-0.65887451171875,-0.6395416259765625,-0.1355133056640625
1731517650017529600,0.270529541015625,-0.6856689453125,-0.6347808837890625,-0.1602020263671875
1731517650027576300,0.280576416015625,-0.7095489501953125,-0.5895538330078125,-0.180633544921875
1731517650037624300,0.290624267578125,-0.74267578125,-0.5599822998046875,-0.149078369140625
1731517650047671300,0.30067138671875,-0.81292724609375,-0.538726806640625,-0.124053955078125
1731517650057719600,0.310719482421875,-0.8872528076171875,-0.5364532470703125,-0.1657562255859375
1731517650067766500,0.3207666015625,-0.8921051025390625,-0.5532379150390625,-0.1864013671875
1731517650077814300,0.330814208984375,-0.85772705078125,-0.564971923828125,-0.26220703125
1731517650087861200,0.340861328125,-0.8646392822265625,-0.615325927734375,-0.329345703125
1731517650097909500,0.350909423828125,-0.8651123046875,-0.6518402099609375,-0.2845001220703125
1731517650107956500,0.36095654296875,-0.8331146240234375,-0.6184844970703125,-0.2132415771484375
1731517650118004200,0.371004150390625,-0.810333251953125,-0.5676116943359375,-0.172088623046875
1731517650128051200,0.38105126953125,-0.772186279296875,-0.5398712158203125,-0.12213134765625
1731517650138099500,0.391099365234375,-0.66619873046875,-0.5190887451171875,-0.0969390869140625
1731517650148146400,0.401146484375,-0.586761474609375,-0.5478668212890625,-0.14288330078125
1731517650158194200,0.411194091796875,-0.654388427734375,-0.638427734375,-0.2364349365234375
1731517650168241400,0.421241455078125,-0.781097412109375,-0.7049102783203125,-0.30731201171875
1731517650178289400,0.431289306640625,-0.862640380859375,-0.7086944580078125,-0.3594970703125
1731517650188336400,0.44133642578125,-0.866241455078125,-0.6833648681640625,-0.3840789794921875
1731517650198384400,0.45138427734375,-0.813385009765625,-0.6544647216796875,-0.406005859375
1731517650208431400,0.461431396484375,-0.7626953125,-0.64739990234375,-0.4295196533203125
1731517650218479400,0.471479248046875,-0.7681121826171875,-0.665771484375,-0.38909912109375
1731517650228526300,0.4815263671875,-0.7856903076171875,-0.6602630615234375,-0.242584228515625
1731517650238574600,0.49157470703125,-0.7595672607421875,-0.607269287109375,-0.073883056640625
1731517650248621600,0.50162158203125,-0.714569091796875,-0.5611419677734375,0.021148681640625
1731517650258669300,0.51166943359375,-0.7097015380859375,-0.5485076904296875,-0.003204345703125
1731517650268716300,0.52171630859375,-0.67584228515625,-0.5537261962890625,-0.03155517578125
1731517650278763300,0.53176318359375,-0.6275787353515625,-0.5529327392578125,-0.0399627685546875
1731517650288811500,0.5418115234375,-0.634765625,-0.5557861328125,-0.07403564453125
1731517650298858500,0.5518583984375,-0.7236175537109375,-0.581787109375,-0.10687255859375
1731517650308906200,0.56190625,-0.782684326171875,-0.599029541015625,-0.12957763671875
1731517650318953500,0.571953369140625,-0.7847137451171875,-0.5790252685546875,-0.1534423828125
1731517650329001500,0.58200146484375,-0.8404998779296875,-0.5536346435546875,-0.1314544677734375
1731517650339048400,0.59204833984375,-0.92578125,-0.5369720458984375,-0.072418212890625
1731517650349096200,0.60209619140625,-0.9928131103515625,-0.52496337890625,-0.0539703369140625
1731517650359143400,0.612143310546875,-1.0324249267578125,-0.5237884521484375,-0.03363037109375
1731517650369191400,0.62219140625,-1.0291290283203125,-0.51226806640625,0.0113677978515625
1731517650379238400,0.63223828125,-0.9859466552734375,-0.5043792724609375,0.000030517578125
1731517650389286400,0.642286376953125,-0.9333953857421875,-0.5236968994140625,-0.056915283203125
1731517650399333400,0.65233349609375,-0.8779449462890625,-0.5742645263671875,-0.1136322021484375
1731517650409381400,0.66238134765625,-0.827850341796875,-0.602691650390625,-0.1640625
1731517650419428400,0.672428466796875,-0.7957000732421875,-0.6090087890625,-0.1846160888671875
1731517650429476600,0.6824765625,-0.8032989501953125,-0.607513427734375,-0.1973114013671875
1731517650439523600,0.692523681640625,-0.963958740234375,-0.591400146484375,-0.2466278076171875
1731517650449571300,0.7025712890625,-1.1201324462890625,-0.5863037109375,-0.216339111328125
1731517650459618300,0.712618408203125,-1.029205322265625,-0.5862579345703125,-0.0524749755859375
1731517650469666600,0.72266650390625,-0.9065399169921875,-0.541717529296875,0.024871826171875
1731517650479713500,0.732713623046875,-0.8057098388671875,-0.483123779296875,0.0150909423828125
1731517650489761300,0.74276123046875,-0.6836090087890625,-0.47991943359375,0.001708984375
1731517650499808300,0.752808349609375,-0.5814208984375,-0.5350799560546875,-0.047393798828125
1731517650509856500,0.7628564453125,-0.5406494140625,-0.585479736328125,-0.133270263671875
1731517650519903500,0.772903564453125,-0.548583984375,-0.58380126953125,-0.18341064453125
1731517650529951200,0.782951171875,-0.6414794921875,-0.547821044921875,-0.215728759765625
1731517650539998200,0.792998291015625,-0.8181304931640625,-0.5302734375,-0.2466278076171875
1731517650550046500,0.80304638671875,-0.814117431640625,-0.57916259765625,-0.179168701171875
1731517650560093400,0.813093505859375,-0.7150726318359375,-0.6378173828125,-0.16571044921875
1731517650570141400,0.823141357421875,-0.6690521240234375,-0.6414794921875,-0.215423583984375
1731517650580188400,0.8331884765625,-0.714874267578125,-0.6382598876953125,-0.3126068115234375
1731517650590236400,0.843236328125,-0.877227783203125,-0.6392822265625,-0.3418426513671875
1731517650600283400,0.853283447265625,-1.0553131103515625,-0.6256866455078125,-0.2576141357421875
1731517650610331400,0.863331298828125,-1.10430908203125,-0.5255584716796875,-0.0760345458984375
1731517650620378400,0.87337841796875,-1.046539306640625,-0.4373321533203125,0.0225982666015625
1731517650630426400,0.88342626953125,-0.9601593017578125,-0.4333343505859375,-0.0213623046875
1731517650640473300,0.893473388671875,-0.8808746337890625,-0.5249176025390625,-0.144989013671875
1731517650650521600,0.903521484375,-0.7795562744140625,-0.631134033203125,-0.2615509033203125
1731517650660568600,0.913568603515625,-0.6554412841796875,-0.701812744140625,-0.3807220458984375
1731517650670616300,0.9236162109375,-0.60003662109375,-0.7301177978515625,-0.3998565673828125
1731517650680663300,0.933663330078125,-0.61370849609375,-0.715545654296875,-0.3365478515625
1731517650690711600,0.943711669921875,-0.62213134765625,-0.6514739990234375,-0.2310028076171875
1731517650700758500,0.953758544921875,-0.7021636962890625,-0.565643310546875,-0.151214599609375
1731517650710806300,0.96380615234375,-0.878997802734375,-0.53778076171875,-0.13006591796875
1731517650720853200,0.973853271484375,-1.069427490234375,-0.5600433349609375,-0.1601715087890625
1731517650730900200,0.983900146484375,-1.097015380859375,-0.5815582275390625,-0.2327423095703125
1731517650740948500,0.993948486328125,-1.04473876953125,-0.60491943359375,-0.3069915771484375
1731517650750995500,1.003995361328125,-0.968902587890625,-0.6748046875,-0.341064453125
1731517650761043200,1.014043212890625,-0.4530792236328125,-0.7535552978515625,-0.2788848876953125
1731517650771090400,1.02409033203125,-0.5308074951171875,-0.65411376953125,-0.3427581787109375
1731517650781138400,1.034138427734375,-0.7127838134765625,-0.6241455078125,-0.309051513671875
1731517650791185400,1.044185302734375,-0.7963104248046875,-0.5982666015625,-0.2285003662109375
1731517650801233400,1.0542333984375,-0.7883148193359375,-0.54058837890625,-0.1150054931640625
1731517650811280400,1.0642802734375,-0.732147216796875,-0.505401611328125,-0.1126251220703125
1731517650821328400,1.074328369140625,-0.754913330078125,-0.51123046875,-0.1564178466796875
1731517650831375400,1.084375244140625,-0.73529052734375,-0.596435546875,-0.18695068359375
1731517650841423600,1.094423583984375,-0.66796875,-0.6451568603515625,-0.2488861083984375
1731517650851470600,1.104470703125,-0.590576171875,-0.623626708984375,-0.342041015625
1731517650861517800,1.114517822265625,-0.65118408203125,-0.6028289794921875,-0.3560943603515625
1731517650871565000,1.12456494140625,-0.7713165283203125,-0.54986572265625,-0.1724853515625
1731517650881613000,1.134613037109375,-0.834686279296875,-0.5312347412109375,-0.0496673583984375
1731517650891660000,1.144659912109375,-0.824615478515625,-0.5747222900390625,-0.10321044921875
1731517650901708000,1.1547080078125,-0.804595947265625,-0.5198822021484375,-0.1118316650390625
1731517650911755000,1.164755126953125,-0.7798004150390625,-0.49871826171875,-0.1303253173828125
1731517650921803000,1.174802978515625,-0.745269775390625,-0.5941009521484375,-0.23858642578125
1731517650931850000,1.18485009765625,-0.707916259765625,-0.6389923095703125,-0.3090057373046875
1731517650941898000,1.19489794921875,-0.6234893798828125,-0.6202850341796875,-0.28564453125
1731517650951945000,1.204945068359375,-0.5873565673828125,-0.6605377197265625,-0.3032379150390625
1731517650961993000,1.214992919921875,-0.6380615234375,-0.6895904541015625,-0.2960968017578125
1731517650972040000,1.2250400390625,-0.69427490234375,-0.6562042236328125,-0.2655487060546875
1731517650982088200,1.235088134765625,-0.7156982421875,-0.6304168701171875,-0.272979736328125
1731517650992135200,1.24513525390625,-0.6787261962890625,-0.636383056640625,-0.2932281494140625
1731517651002183000,1.255182861328125,-0.6236724853515625,-0.6676483154296875,-0.3275146484375
1731517651012230000,1.26522998046875,-0.5644378662109375,-0.697784423828125,-0.3685455322265625
1731517651022278100,1.275278076171875,-0.5153961181640625,-0.7156829833984375,-0.392425537109375
1731517651032325000,1.2853251953125,-0.5128326416015625,-0.7066650390625,-0.438934326171875
1731517651042372000,1.2953720703125,-0.5237579345703125,-0.68157958984375,-0.4378662109375
1731517651052420000,1.305420166015625,-0.61456298828125,-0.648834228515625,-0.3542327880859375
1731517651062467000,1.315467041015625,-0.7493743896484375,-0.580718994140625,-0.253509521484375
1731517651072515000,1.32551513671875,-0.850341796875,-0.50506591796875,-0.169158935546875
1731517651082562000,1.33556201171875,-0.890777587890625,-0.4522552490234375,-0.127685546875
1731517651092610000,1.345610107421875,-0.9320068359375,-0.44091796875,-0.1624298095703125
1731517651102657000,1.355656982421875,-0.9870147705078125,-0.460601806640625,-0.2453460693359375
1731517651112705000,1.365705078125,-1.01263427734375,-0.492340087890625,-0.266143798828125
1731517651122752000,1.375751953125,-1.0009002685546875,-0.489532470703125,-0.30181884765625
1731517651132800000,1.385800048828125,-0.9410247802734375,-0.4518890380859375,-0.28076171875
1731517651142847000,1.395846923828125,-0.883087158203125,-0.408355712890625,-0.248992919921875
1731517651152895000,1.40589501953125,-0.830596923828125,-0.3856658935546875,-0.26104736328125
1731517651162942000,1.41594189453125,-0.783203125,-0.41705322265625,-0.25067138671875
1731517651172990200,1.425990234375,-0.7212371826171875,-0.4711761474609375,-0.2167816162109375
1731517651183037000,1.436036865234375,-0.66632080078125,-0.5135040283203125,-0.1473236083984375
1731517651193085000,1.4460849609375,-0.630340576171875,-0.51409912109375,-0.04046630859375
1731517651203132000,1.4561318359375,-0.60516357421875,-0.4786224365234375,0.0373077392578125
1731517651213180200,1.46618017578125,-0.602813720703125,-0.425567626953125,0.0506439208984375
1731517651223227100,1.47622705078125,-0.6323089599609375,-0.387847900390625,0.0429534912109375
1731517651233275000,1.48627490234375,-0.668853759765625,-0.3695068359375,-0.0041351318359375
1731517651243322000,1.496322021484375,-0.715423583984375,-0.3567962646484375,-0.065521240234375
1731517651253370000,1.5063701171875,-0.8253021240234375,-0.3758544921875,-0.117156982421875
1731517651263417000,1.5164169921875,-0.985870361328125,-0.40838623046875,-0.14776611328125
1731517651273464800,1.52646484375,-1.0838623046875,-0.4021453857421875,-0.1316375732421875
1731517651283512000,1.536511962890625,-1.1160736083984375,-0.3543853759765625,-0.0625152587890625
1731517651293559000,1.54655908203125,-1.110931396484375,-0.2933349609375,0.034637451171875
1731517651303607000,1.55660693359375,-0.9729156494140625,-0.2951202392578125,0.0791168212890625
1731517651313654000,1.566654052734375,-1.0089263916015625,-0.3222808837890625,0.1219940185546875
1731517651323702000,1.576701904296875,-1.0937957763671875,-0.3090057373046875,0.13348388671875
1731517651333749000,1.5867490234375,-1.1589202880859375,-0.2623138427734375,0.1128082275390625
1731517651343797000,1.596796875,-1.22955322265625,-0.21978759765625,0.0725555419921875
1731517651353844000,1.606843994140625,-1.2330780029296875,-0.188140869140625,0.0425567626953125
1731517651363892000,1.61689208984375,-1.229461669921875,-0.1802978515625,0.0329437255859375
1731517651373939000,1.62693896484375,-1.2337646484375,-0.215087890625,0.0339508056640625
1731517651383987000,1.636987060546875,-1.19989013671875,-0.231353759765625,0.0110626220703125
1731517651394034000,1.647033935546875,-1.13983154296875,-0.24591064453125,-0.001373291015625
1731517651404082200,1.657082275390625,-1.0810699462890625,-0.267364501953125,0.0137939453125
1731517651414129000,1.66712890625,-1.034515380859375,-0.2644805908203125,0.041351318359375
1731517651424177000,1.677177001953125,-0.993682861328125,-0.248321533203125,0.0479888916015625
1731517651434224000,1.68722412109375,-0.9681549072265625,-0.2474822998046875,0.03533935546875
1731517651444272000,1.697272216796875,-0.968536376953125,-0.257598876953125,0.038848876953125
1731517651454319000,1.707319091796875,-0.9774169921875,-0.26226806640625,0.054229736328125
1731517651464366800,1.717366943359375,-0.97479248046875,-0.2560882568359375,0.0543060302734375
1731517651474414000,1.7274140625,-0.9887542724609375,-0.2501068115234375,0.03582763671875
1731517651484462000,1.737462158203125,-1.00238037109375,-0.254974365234375,0.0147552490234375
1731517651494509000,1.747509033203125,-0.9878692626953125,-0.263397216796875,-0.007232666015625
1731517651504557000,1.75755712890625,-0.9556427001953125,-0.2723388671875,-0.0252532958984375
1731517651514604000,1.76760400390625,-0.940338134765625,-0.2935638427734375,-0.0328216552734375
1731517651524651000,1.777651123046875,-0.9357147216796875,-0.3101806640625,-0.0397186279296875
1731517651534699000,1.787698974609375,-0.9325103759765625,-0.3079376220703125,-0.0423736572265625
1731517651544746000,1.79774609375,-0.9286651611328125,-0.2958221435546875,-0.03643798828125
1731517651554794000,1.8077939453125,-0.9306640625,-0.289886474609375,-0.024566650390625
1731517651564841000,1.817841064453125,-0.94720458984375,-0.2849884033203125,-0.0218353271484375
1731517651574889000,1.827888916015625,-0.9800567626953125,-0.2877655029296875,-0.0421600341796875
1731517651584936200,1.837936279296875,-0.994537353515625,-0.2924041748046875,-0.075103759765625
1731517651594984000,1.84798388671875,-0.98779296875,-0.296905517578125,-0.086029052734375
1731517651605031000,1.858031005859375,-0.9769134521484375,-0.30267333984375,-0.0844268798828125
1731517651615079000,1.868078857421875,-0.966522216796875,-0.3065948486328125,-0.08160400390625
1731517651625126100,1.878126220703125,-0.964569091796875,-0.3123779296875,-0.076629638671875
1731517651635174100,1.888174072265625,-0.963958740234375,-0.300384521484375,-0.0701751708984375
1731517651645221000,1.89822119140625,-0.950714111328125,-0.2801361083984375,-0.05780029296875
1731517651655268900,1.908268798828125,-0.9447784423828125,-0.2763214111328125,-0.0510406494140625
1731517651665316000,1.918316162109375,-0.9524688720703125,-0.2872314453125,-0.04925537109375
1731517651675364000,1.928364013671875,-0.9535675048828125,-0.2893829345703125,-0.0450286865234375
1731517651685411000,1.9384111328125,-0.949462890625,-0.2816925048828125,-0.04638671875
1731517651695459000,1.948458984375,-0.940032958984375,-0.2757568359375,-0.0415496826171875
1731517651705506000,1.958506103515625,-0.932647705078125,-0.2778778076171875,-0.032562255859375
1731517651715554000,1.968553955078125,-0.9280242919921875,-0.291107177734375,-0.02606201171875
1731517651725601000,1.97860107421875,-0.95489501953125,-0.3154144287109375,-0.046630859375
1731517651735649000,1.98864892578125,-0.9827728271484375,-0.292022705078125,-0.10162353515625
1731517651745696000,1.998696044921875,-0.981842041015625,-0.2803802490234375,-0.0957794189453125
1731517651755743000,2.008742919921875,-0.9530181884765625,-0.283447265625,-0.0586700439453125
1731517651765791000,2.018791015625,-0.9482879638671875,-0.28863525390625,-0.017425537109375
1731517651775838200,2.028838134765625,-0.9767913818359375,-0.2864532470703125,0.003326416015625
1731517651785886000,2.038885986328125,-0.9941558837890625,-0.2693328857421875,-0.00579833984375
1731517651795933000,2.048932861328125,-0.968841552734375,-0.2554779052734375,-0.0232086181640625
1731517651805981000,2.05898095703125,-0.9312286376953125,-0.2672576904296875,-0.0323028564453125
1731517651816028200,2.069028076171875,-0.919586181640625,-0.2939453125,-0.0394134521484375
1731517651826076000,2.079075927734375,-0.9530181884765625,-0.30926513671875,-0.054595947265625
1731517651836123000,2.089122802734375,-0.9933319091796875,-0.2979278564453125,-0.0634765625
1731517651846171100,2.099171142578125,-1.0022735595703125,-0.2774658203125,-0.0496826171875
1731517651856218000,2.109218017578125,-0.9950103759765625,-0.2689208984375,-0.030914306640625
1731517651866266600,2.1192666015625,-0.9832000732421875,-0.276123046875,-0.019195556640625
1731517651876313600,2.129313720703125,-0.9708404541015625,-0.286651611328125,-0.021636962890625
1731517651886361900,2.13936181640625,-0.96136474609375,-0.290191650390625,-0.0306854248046875
1731517651896408800,2.149408935546875,-0.94696044921875,-0.2902679443359375,-0.04193115234375
1731517651906456800,2.159456787109375,-0.945220947265625,-0.2903900146484375,-0.046173095703125
1731517651916503600,2.169503662109375,-0.95159912109375,-0.2960357666015625,-0.0469970703125
1731517651926551800,2.1795517578125,-0.9706268310546875,-0.301025390625,-0.0611114501953125
1731517651936598800,2.189598876953125,-0.976837158203125,-0.3028564453125,-0.06781005859375
1731517651946646800,2.199646728515625,-0.964385986328125,-0.2881927490234375,-0.0605621337890625
1731517651956693800,2.20969384765625,-0.9432525634765625,-0.26812744140625,-0.0396881103515625
1731517651966741800,2.21974169921875,-0.9375457763671875,-0.27532958984375,-0.021759033203125
1731517651976788700,2.229788818359375,-0.9480743408203125,-0.29058837890625,-0.014617919921875
1731517651986835700,2.239835693359375,-0.9590301513671875,-0.26007080078125,-0.007415771484375
1731517651996883700,2.2498837890625,-0.9765777587890625,-0.250396728515625,-0.028472900390625
1731517652006931000,2.259930908203125,-0.97308349609375,-0.268280029296875,-0.01385498046875
1731517652016978700,2.269978759765625,-0.952911376953125,-0.28070068359375,-0.0052337646484375
1731517652027025700,2.280025634765625,-0.9363250732421875,-0.276947021484375,-0.0018157958984375
1731517652037073700,2.29007373046875,-0.9396820068359375,-0.2780303955078125,-0.019287109375
1731517652047121000,2.300120849609375,-0.9518585205078125,-0.28668212890625,-0.0405731201171875
1731517652057168600,2.310168701171875,-0.9428253173828125,-0.2803802490234375,-0.053466796875
1731517652067215600,2.320215576171875,-0.9377593994140625,-0.28167724609375,-0.05523681640625
1731517652077264000,2.330263916015625,-0.9433441162109375,-0.2904052734375,-0.0358734130859375
1731517652087310800,2.340310791015625,-0.9475555419921875,-0.2920684814453125,-0.021453857421875
1731517652097358600,2.350358642578125,-0.956146240234375,-0.2887115478515625,-0.0073394775390625
1731517652107405600,2.360405517578125,-0.973297119140625,-0.2750244140625,-0.0001983642578125
1731517652117453800,2.370453857421875,-0.991851806640625,-0.26251220703125,-0.0066680908203125
1731517652127500800,2.380500732421875,-0.9972076416015625,-0.2643890380859375,-0.01806640625
1731517652137548800,2.390548828125,-0.9913330078125,-0.27679443359375,-0.0211029052734375
1731517652147595500,2.400595458984375,-0.9760894775390625,-0.287139892578125,-0.023406982421875
1731517652157643800,2.410643798828125,-0.95977783203125,-0.288787841796875,-0.0326080322265625
1731517652167690800,2.420690673828125,-0.949493408203125,-0.289642333984375,-0.0373077392578125
1731517652177737700,2.43073779296875,-0.94256591796875,-0.29718017578125,-0.036712646484375
1731517652187785700,2.44078564453125,-0.94329833984375,-0.305816650390625,-0.0325469970703125
1731517652197832700,2.450832763671875,-0.9588623046875,-0.300933837890625,-0.03204345703125
1731517652207880700,2.460880615234375,-0.97113037109375,-0.283294677734375,-0.0393829345703125
1731517652217927700,2.470927734375,-0.9714202880859375,-0.2755889892578125,-0.0369720458984375
1731517652227976000,2.480975830078125,-0.9694976806640625,-0.2787322998046875,-0.026611328125
1731517652238023000,2.49102294921875,-0.9696807861328125,-0.28131103515625,-0.0108795166015625
1731517652248070700,2.501070556640625,-0.9714508056640625,-0.2807464599609375,-0.0114898681640625
1731517652258117600,2.51111767578125,-0.96783447265625,-0.2866363525390625,-0.023956298828125
1731517652268166000,2.521165771484375,-0.952789306640625,-0.294158935546875,-0.0353851318359375
1731517652278212900,2.531212890625,-0.9338531494140625,-0.294586181640625,-0.040008544921875
1731517652288260600,2.541260498046875,-0.932586669921875,-0.2929840087890625,-0.047576904296875
1731517652298307600,2.5513076171875,-0.9455718994140625,-0.292327880859375,-0.046722412109375
1731517652308355800,2.56135595703125,-0.9408721923828125,-0.29339599609375,-0.0345458984375
1731517652318402800,2.57140283203125,-0.93048095703125,-0.297088623046875,-0.0205078125
1731517652328450600,2.581450439453125,-0.9231414794921875,-0.2938690185546875,-0.019683837890625
1731517652338497500,2.59149755859375,-0.9343414306640625,-0.2910308837890625,-0.0239410400390625
1731517652348545800,2.6015458984375,-0.9530487060546875,-0.289215087890625,-0.02911376953125
1731517652358592800,2.6115927734375,-0.965087890625,-0.2834625244140625,-0.0245513916015625
1731517652368640800,2.621640869140625,-0.9723663330078125,-0.2777099609375,-0.0126495361328125
1731517652378687700,2.631687744140625,-0.981597900390625,-0.27349853515625,-0.0055999755859375
1731517652388734700,2.641734619140625,-0.9869537353515625,-0.2760009765625,-0.004730224609375
1731517652398782700,2.65178271484375,-0.9791259765625,-0.2755584716796875,-0.0125732421875
1731517652408829700,2.66182958984375,-0.96636962890625,-0.2792510986328125,-0.0218353271484375
1731517652418878000,2.6718779296875,-0.9508514404296875,-0.286224365234375,-0.03466796875
1731517652428924700,2.681924560546875,-0.9337005615234375,-0.294281005859375,-0.039794921875
1731517652438972700,2.69197265625,-0.9254913330078125,-0.2982635498046875,-0.044525146484375
1731517652449019600,2.70201953125,-0.92242431640625,-0.2992706298828125,-0.038665771484375
1731517652459068000,2.71206787109375,-0.9244232177734375,-0.2985382080078125,-0.0258941650390625
1731517652469115000,2.722114990234375,-0.9315948486328125,-0.2937164306640625,-0.0153656005859375
1731517652479162600,2.73216259765625,-0.9504547119140625,-0.28277587890625,-0.010986328125
1731517652489209600,2.742209716796875,-0.9683990478515625,-0.2743988037109375,-0.015960693359375
1731517652499257900,2.7522578125,-0.9788360595703125,-0.273956298828125,-0.0037384033203125
1731517652509304800,2.762304931640625,-0.9699554443359375,-0.2664642333984375,0.011627197265625
1731517652519352600,2.7723525390625,-0.9539031982421875,-0.26513671875,0.0139617919921875
1731517652529399600,2.782399658203125,-0.9562225341796875,-0.277099609375,0.0007781982421875
1731517652539447800,2.79244775390625,-0.964141845703125,-0.2893829345703125,-0.017578125
1731517652549494800,2.802494873046875,-0.9629974365234375,-0.2934722900390625,-0.0287628173828125
1731517652559542500,2.81254248046875,-0.9544219970703125,-0.291748046875,-0.0231170654296875
1731517652569589500,2.822589599609375,-0.952239990234375,-0.2905120849609375,-0.0144805908203125
1731517652579636700,2.83263671875,-0.9535675048828125,-0.290069580078125,-0.003662109375
1731517652589684700,2.842684814453125,-0.9569549560546875,-0.2885894775390625,0.0020599365234375
1731517652599731700,2.852731689453125,-0.9627685546875,-0.284149169921875,-0.001617431640625
1731517652609779700,2.86277978515625,-0.96649169921875,-0.2858734130859375,-0.0004730224609375
1731517652619826700,2.87282666015625,-0.96820068359375,-0.280975341796875,0.0057220458984375
1731517652629874700,2.882874755859375,-0.9636993408203125,-0.27606201171875,0.0030364990234375
1731517652639921700,2.892921630859375,-0.962371826171875,-0.28179931640625,-0.00762939453125
1731517652649970000,2.902969970703125,-0.9678192138671875,-0.292510986328125,-0.0159149169921875
1731517652660017000,2.913016845703125,-0.963958740234375,-0.2960205078125,-0.0233001708984375
1731517652670064600,2.923064697265625,-0.9534454345703125,-0.29815673828125,-0.02069091796875
1731517652680111600,2.933111572265625,-0.943145751953125,-0.2985992431640625,-0.0149383544921875
1731517652690159900,2.943159912109375,-0.9317779541015625,-0.295440673828125,-0.010986328125
1731517652700206800,2.953206787109375,-0.9359588623046875,-0.2906646728515625,-0.0070648193359375
1731517652710254600,2.963254638671875,-0.9500274658203125,-0.28741455078125,-0.0032501220703125
1731517652720301600,2.973301513671875,-0.962554931640625,-0.28240966796875,0.0008544921875
1731517652730349800,2.983349853515625,-0.9693756103515625,-0.278472900390625,0.0070343017578125
1731517652740396800,2.993396728515625,-0.975189208984375,-0.27001953125,0.0147552490234375
1731517652750444500,3.003444580078125,-0.9830474853515625,-0.2706756591796875,0.0151519775390625
1731517652760491800,3.01349169921875,-0.994171142578125,-0.2714691162109375,0.00714111328125
1731517652770538800,3.023538818359375,-0.9918212890625,-0.27392578125,0.00848388671875
1731517652780586800,3.033586669921875,-0.9767303466796875,-0.276580810546875,0.010101318359375
1731517652790633700,3.0436337890625,-0.956268310546875,-0.2778778076171875,0.0110931396484375
1731517652800681700,3.053681640625,-0.945220947265625,-0.2823028564453125,0.0125274658203125
1731517652810728700,3.063728759765625,-0.9443511962890625,-0.2920684814453125,0.0048828125
1731517652820776700,3.073776611328125,-0.9445953369140625,-0.2931365966796875,-0.0012054443359375
1731517652830823700,3.08382373046875,-0.940765380859375,-0.2990570068359375,-0.0123443603515625
1731517652840872000,3.093871826171875,-0.9333648681640625,-0.2764739990234375,0.01080322265625
1731517652850918700,3.103918701171875,-0.9257965087890625,-0.2643585205078125,0.0102996826171875
1731517652860966100,3.113966064453125,-0.9423370361328125,-0.27166748046875,0.004730224609375
1731517652871013000,3.12401318359375,-0.9629669189453125,-0.2744598388671875,0.003082275390625
1731517652881061000,3.13406103515625,-0.9697113037109375,-0.2628326416015625,-0.0022430419921875
1731517652891108000,3.144108154296875,-0.96307373046875,-0.2541351318359375,0.0099334716796875
1731517652901156000,3.154156005859375,-0.948028564453125,-0.2576751708984375,0.0243682861328125
1731517652911203000,3.164203125,-0.9329833984375,-0.2662200927734375,0.0252685546875
1731517652921251000,3.1742509765625,-0.9183807373046875,-0.2750396728515625,0.0165252685546875
1731517652931298000,3.184298095703125,-0.90411376953125,-0.2814483642578125,0.012786865234375
1731517652941346000,3.194345947265625,-0.9051055908203125,-0.2839202880859375,0.0043487548828125
1731517652951393000,3.20439306640625,-0.91693115234375,-0.2911224365234375,-0.006744384765625
1731517652961440000,3.21443994140625,-0.92901611328125,-0.29583740234375,0.0034942626953125
1731517652971488000,3.224488037109375,-0.935302734375,-0.292877197265625,0.029327392578125
1731517652981535200,3.23453515625,-0.9259033203125,-0.2855072021484375,0.04736328125
1731517652991583200,3.244583251953125,-0.9193878173828125,-0.28009033203125,0.0540771484375
1731517653001630000,3.2546298828125,-0.9253692626953125,-0.2844085693359375,0.04608154296875
1731517653011678200,3.26467822265625,-0.950286865234375,-0.2956390380859375,0.0210418701171875
1731517653021725200,3.27472509765625,-0.984588623046875,-0.2966461181640625,0.00286865234375
1731517653031773200,3.284773193359375,-1.00616455078125,-0.295928955078125,-0.0050201416015625
1731517653041820200,3.294820068359375,-1.0059814453125,-0.2912445068359375,-0.0008392333984375
1731517653051868200,3.3048681640625,-1.0070037841796875,-0.28961181640625,0.0023040771484375
1731517653061915100,3.3149150390625,-1.016693115234375,-0.28765869140625,-0.0050506591796875
1731517653071963100,3.324963134765625,-1.0157318115234375,-0.2930145263671875,-0.0061187744140625
1731517653082010000,3.335010009765625,-0.9998016357421875,-0.2964630126953125,0.003173828125
1731517653092058000,3.34505810546875,-0.9839019775390625,-0.2979583740234375,0.0088958740234375
1731517653102105000,3.35510498046875,-0.9747772216796875,-0.2924346923828125,0.0106964111328125
1731517653112153000,3.365153076171875,-0.9707489013671875,-0.287872314453125,0.0127105712890625
1731517653122200000,3.375199951171875,-0.9667205810546875,-0.283172607421875,0.019287109375
1731517653132247300,3.385247314453125,-0.97540283203125,-0.280029296875,0.0267181396484375
1731517653142295000,3.395294921875,-0.9910125732421875,-0.2750244140625,0.031463623046875
1731517653152342000,3.405342041015625,-1.0200958251953125,-0.2664337158203125,0.0300445556640625
1731517653162390000,3.41539013671875,-1.043243408203125,-0.2579345703125,0.029571533203125
1731517653172437200,3.425437255859375,-1.03594970703125,-0.25,0.02960205078125
1731517653182485000,3.435485107421875,-1.0127410888671875,-0.252166748046875,0.0230865478515625
1731517653192532000,3.445531982421875,-1.000274658203125,-0.26397705078125,0.0133514404296875
1731517653202580200,3.455580322265625,-1.002685546875,-0.269622802734375,0.0033416748046875
1731517653212627200,3.465627197265625,-1.006317138671875,-0.270263671875,-0.0084991455078125
1731517653222675200,3.47567529296875,-0.9806060791015625,-0.265838623046875,-0.0053558349609375
1731517653232722000,3.485721923828125,-0.9459228515625,-0.264373779296875,0.00860595703125
1731517653242770200,3.495770263671875,-0.923309326171875,-0.264678955078125,0.014923095703125
1731517653252817200,3.505817138671875,-0.906402587890625,-0.2680206298828125,0.0090484619140625
1731517653262865200,3.515865234375,-0.9064483642578125,-0.2704010009765625,0.00347900390625
1731517653272912100,3.525912109375,-0.915863037109375,-0.2684783935546875,-0.00091552734375
1731517653282960100,3.535960205078125,-0.93450927734375,-0.2642974853515625,0.00653076171875
1731517653293007000,3.546007080078125,-0.9506072998046875,-0.258087158203125,0.0159912109375
1731517653303054000,3.55605419921875,-0.96337890625,-0.254302978515625,0.0181121826171875
1731517653313102000,3.56610205078125,-0.9662017822265625,-0.2534332275390625,0.0166168212890625
1731517653323149300,3.5761494140625,-0.957550048828125,-0.2528076171875,0.0145721435546875
1731517653333197000,3.586197021484375,-0.946746826171875,-0.2575836181640625,0.0105438232421875
1731517653343244000,3.596244140625,-0.9388885498046875,-0.2647247314453125,0.0013580322265625
1731517653353292000,3.6062919921875,-0.9407958984375,-0.271148681640625,-0.005828857421875
1731517653363339300,3.61633935546875,-0.936981201171875,-0.27471923828125,0.0033111572265625
1731517653373387000,3.626386962890625,-0.9363250732421875,-0.2730560302734375,0.0162811279296875
1731517653383434000,3.63643408203125,-0.946746826171875,-0.27069091796875,0.026123046875
1731517653393482200,3.646482177734375,-0.964111328125,-0.2657470703125,0.029266357421875
1731517653403529200,3.656529296875,-0.975067138671875,-0.2599334716796875,0.023651123046875
1731517653413577000,3.666576904296875,-0.97454833984375,-0.2586669921875,0.017333984375
1731517653423624000,3.6766240234375,-0.96563720703125,-0.262115478515625,0.0197296142578125
1731517653433672200,3.686672119140625,-0.9586639404296875,-0.264617919921875,0.0290069580078125
1731517653443719200,3.69671923828125,-0.9591217041015625,-0.2624053955078125,0.0205078125
1731517653453767200,3.70676708984375,-0.9550628662109375,-0.2659149169921875,0.0100860595703125
1731517653463814100,3.716814208984375,-0.9468231201171875,-0.2743377685546875,0.011505126953125
1731517653473861000,3.726861083984375,-0.9435272216796875,-0.28369140625,0.01837158203125
1731517653483909000,3.7369091796875,-0.9536285400390625,-0.290130615234375,0.0316619873046875
1731517653493956000,3.7469560546875,-0.9691925048828125,-0.281524658203125,0.037078857421875
1731517653504004000,3.757004150390625,-0.989227294921875,-0.274383544921875,0.0334014892578125
1731517653514051000,3.767051025390625,-1.0027313232421875,-0.269805908203125,0.0256195068359375
1731517653524099000,3.77709912109375,-1.0087890625,-0.2673797607421875,0.0155487060546875
1731517653534146000,3.78714599609375,-1.000946044921875,-0.2664947509765625,0.0036163330078125
1731517653544194300,3.7971943359375,-0.9798126220703125,-0.26416015625,-0.0032196044921875
1731517653554241300,3.8072412109375,-0.95587158203125,-0.2667083740234375,-0.00299072265625
1731517653564289000,3.8172890625,-0.9445037841796875,-0.278839111328125,0.0019378662109375
1731517653574336000,3.8273359375,-0.9402008056640625,-0.2888336181640625,0.0043487548828125
1731517653584384300,3.83738427734375,-0.9436798095703125,-0.295654296875,-0.0048065185546875
1731517653594431200,3.84743115234375,-0.9487762451171875,-0.2999267578125,-0.0189666748046875
1731517653604479000,3.85747900390625,-0.9505767822265625,-0.2972259521484375,-0.0198516845703125
1731517653614526000,3.86752587890625,-0.952423095703125,-0.2912139892578125,-0.01226806640625
1731517653624574200,3.87757421875,-0.96270751953125,-0.276336669921875,-0.007354736328125
1731517653634621200,3.88762109375,-0.982818603515625,-0.2626190185546875,-0.00128173828125
1731517653644668200,3.897668212890625,-0.9870758056640625,-0.256317138671875,0.0110015869140625
1731517653654716000,3.9077158203125,-0.9734039306640625,-0.256866455078125,0.029083251953125
1731517653664763100,3.91776318359375,-0.9652557373046875,-0.26129150390625,0.034271240234375
1731517653674811100,3.92781103515625,-0.9676666259765625,-0.2661895751953125,0.029266357421875
1731517653684858000,3.937858154296875,-0.969573974609375,-0.268310546875,0.0231781005859375
1731517653694906000,3.947906005859375,-0.96624755859375,-0.2675628662109375,0.019805908203125
1731517653704953000,3.957953125,-0.9627227783203125,-0.261871337890625,0.023773193359375
1731517653715001000,3.9680009765625,-0.9712066650390625,-0.26025390625,0.034423828125
1731517653725048000,3.978048095703125,-0.983917236328125,-0.2602691650390625,0.0384063720703125
1731517653735096300,3.988096435546875,-0.9882049560546875,-0.2620697021484375,0.0300140380859375
1731517653745143300,3.998143310546875,-0.9879302978515625,-0.2680511474609375,0.02264404296875
1731517653755191000,4.00819091796875,-0.9784698486328125,-0.2709808349609375,0.021728515625
1731517653765238000,4.018238037109375,-0.964935302734375,-0.27392578125,0.0284576416015625
1731517653775286300,4.028286376953125,-0.9582061767578125,-0.274810791015625,0.0318756103515625
1731517653785333200,4.038333251953125,-0.9624786376953125,-0.273895263671875,0.0286865234375
1731517653795380200,4.048380126953125,-0.962188720703125,-0.2724151611328125,0.0216217041015625
1731517653805428000,4.058427978515625,-0.94647216796875,-0.27252197265625,0.0261077880859375
1731517653815475000,4.068474853515625,-0.9398651123046875,-0.27276611328125,0.035552978515625
1731517653825523200,4.078523193359375,-0.945220947265625,-0.271331787109375,0.035125732421875
1731517653835570200,4.088570068359375,-0.9501495361328125,-0.273895263671875,0.0292510986328125
1731517653845618000,4.098617919921875,-0.9474945068359375,-0.27880859375,0.0243377685546875
1731517653855665200,4.1086650390625,-0.949188232421875,-0.2850341796875,0.0172576904296875
1731517653865714000,4.1187138671875,-0.95562744140625,-0.28936767578125,0.015625
1731517653875761000,4.128760986328125,-0.9570159912109375,-0.2830963134765625,0.018798828125
1731517653885808600,4.13880859375,-0.95635986328125,-0.2720794677734375,0.024169921875
1731517653895855600,4.148855712890625,-0.9517364501953125,-0.2703704833984375,0.0328521728515625
1731517653905903900,4.15890380859375,-0.947021484375,-0.2709503173828125,0.0333404541015625
1731517653915950800,4.168950927734375,-0.9476165771484375,-0.2733154296875,0.02496337890625
1731517653925998600,4.17899853515625,-0.954986572265625,-0.2736663818359375,0.0210723876953125
1731517653936045600,4.189045654296875,-0.9696807861328125,-0.272003173828125,0.0274658203125
1731517653946092800,4.1990927734375,-0.98321533203125,-0.266571044921875,0.032135009765625
1731517653956140800,4.209140869140625,-0.9772796630859375,-0.2651214599609375,0.0374755859375
1731517653966187800,4.219187744140625,-0.952606201171875,-0.2670135498046875,0.0379180908203125
1731517653976235500,4.229235595703125,-0.9376373291015625,-0.2699127197265625,0.033294677734375
1731517653986282800,4.23928271484375,-0.954132080078125,-0.275665283203125,0.01763916015625
1731517653996330800,4.249330810546875,-0.9722900390625,-0.2791748046875,0.0105743408203125
1731517654006377700,4.259377685546875,-0.9698486328125,-0.2739410400390625,0.02294921875
1731517654016425700,4.26942578125,-0.9582977294921875,-0.267425537109375,0.03814697265625
1731517654026472700,4.27947265625,-0.9461822509765625,-0.2644805908203125,0.04888916015625
1731517654036520700,4.289520751953125,-0.94647216796875,-0.2672576904296875,0.0435333251953125
1731517654046567700,4.299567626953125,-0.9636077880859375,-0.2765960693359375,0.0293121337890625
1731517654056616000,4.309615966796875,-0.9836273193359375,-0.282440185546875,0.019775390625
1731517654066663000,4.319662841796875,-0.99200439453125,-0.2819366455078125,0.0121307373046875
1731517654076710700,4.329710693359375,-0.9788818359375,-0.2796630859375,0.005340576171875
1731517654086757600,4.339757568359375,-0.9518280029296875,-0.27703857421875,0.007904052734375
1731517654096806000,4.349805908203125,-0.931884765625,-0.2776641845703125,0.020660400390625
1731517654106852900,4.359852783203125,-0.9301910400390625,-0.2805023193359375,0.023712158203125
1731517654116899800,4.36989990234375,-0.937896728515625,-0.2848052978515625,0.01898193359375
1731517654126947600,4.379947509765625,-0.9365692138671875,-0.2869873046875,0.0172119140625
1731517654136994800,4.389994873046875,-0.9343109130859375,-0.2833099365234375,0.0230712890625
1731517654147042800,4.400042724609375,-0.9412689208984375,-0.2763824462890625,0.031402587890625
1731517654157089800,4.41008984375,-0.9589691162109375,-0.2635345458984375,0.0329132080078125
1731517654167137500,4.420137451171875,-0.98016357421875,-0.25628662109375,0.0340728759765625
1731517654177184800,4.430184814453125,-0.9866943359375,-0.2560577392578125,0.03192138671875
1731517654187232800,4.440232666015625,-0.9815216064453125,-0.259033203125,0.0243377685546875
1731517654197279700,4.45027978515625,-0.977325439453125,-0.2700958251953125,0.01385498046875
1731517654207327700,4.46032763671875,-0.976287841796875,-0.2808685302734375,0.010223388671875
1731517654217374700,4.470374755859375,-0.9669952392578125,-0.2822265625,0.011322021484375
1731517654227422700,4.480422607421875,-0.9559783935546875,-0.2814788818359375,0.019134521484375
1731517654237469700,4.4904697265625,-0.95062255859375,-0.2817840576171875,0.0247039794921875
1731517654247518000,4.50051806640625,-0.94915771484375,-0.282440185546875,0.0232086181640625
1731517654257564700,4.510564697265625,-0.947021484375,-0.28173828125,0.0204925537109375
1731517654267611600,4.520611572265625,-0.94482421875,-0.2815093994140625,0.018402099609375
1731517654277659600,4.53065966796875,-0.9536590576171875,-0.2801361083984375,0.0181121826171875
1731517654287706600,4.54070654296875,-0.976104736328125,-0.2713775634765625,0.0206451416015625
1731517654297755000,4.5507548828125,-1.00262451171875,-0.2637786865234375,0.0243377685546875
1731517654307801600,4.560801513671875,-1.014129638671875,-0.2555389404296875,0.028656005859375
1731517654317849600,4.570849609375,-1.0017547607421875,-0.25732421875,0.0316009521484375
1731517654327896800,4.580896728515625,-0.974456787109375,-0.2641143798828125,0.037322998046875
1731517654337944800,4.59094482421875,-0.9488372802734375,-0.2710723876953125,0.0364227294921875
1731517654347991800,4.60099169921875,-0.934417724609375,-0.2787628173828125,0.0240631103515625
1731517654358039600,4.61103955078125,-0.928955078125,-0.2886962890625,0.0079193115234375
1731517654368086800,4.621086669921875,-0.935455322265625,-0.294769287109375,0.00531005859375
1731517654378134800,4.631134765625,-0.9492645263671875,-0.2931365966796875,0.013336181640625
1731517654388181800,4.641181640625,-0.96099853515625,-0.281951904296875,0.0208587646484375
1731517654398229800,4.651229736328125,-0.97442626953125,-0.2736358642578125,0.0291900634765625
1731517654408276700,4.66127685546875,-0.9847259521484375,-0.2734375,0.0325164794921875
1731517654418323700,4.67132373046875,-0.9906768798828125,-0.2726287841796875,0.0304718017578125
1731517654428371700,4.681371826171875,-0.97589111328125,-0.266021728515625,0.0291290283203125
1731517654438418700,4.691418701171875,-0.955718994140625,-0.2712249755859375,0.029205322265625
1731517654448466700,4.701466796875,-0.9467315673828125,-0.2825927734375,0.02862548828125
1731517654458513700,4.711513671875,-0.943878173828125,-0.29266357421875,0.0205078125
1731517654468561700,4.721561767578125,-0.9397735595703125,-0.291046142578125,0.0117340087890625
1731517654478609000,4.73160888671875,-0.9424896240234375,-0.2860260009765625,0.016265869140625
1731517654488656600,4.74165673828125,-0.9558868408203125,-0.2828521728515625,0.0256805419921875
1731517654498703600,4.75170361328125,-0.971710205078125,-0.2791748046875,0.0323638916015625
1731517654508751600,4.761751708984375,-0.982421875,-0.27008056640625,0.035797119140625
1731517654518798800,4.771798828125,-0.9837646484375,-0.264190673828125,0.0363616943359375
1731517654528846800,4.781846923828125,-0.9771575927734375,-0.2640533447265625,0.0300140380859375
1731517654538893800,4.791893798828125,-0.9680023193359375,-0.26629638671875,0.0224761962890625
1731517654548941600,4.801941650390625,-0.9661102294921875,-0.27117919921875,0.0147705078125
1731517654558988800,4.81198876953125,-0.97119140625,-0.275238037109375,0.0137786865234375
1731517654569035800,4.822035888671875,-0.9773712158203125,-0.276153564453125,0.020599365234375
1731517654579083800,4.832083740234375,-0.9777374267578125,-0.2694549560546875,0.0287628173828125
1731517654589130800,4.842130859375,-0.9676666259765625,-0.266021728515625,0.0336456298828125
1731517654599178800,4.8521787109375,-0.95379638671875,-0.2663116455078125,0.035186767578125
1731517654609225700,4.862225830078125,-0.942840576171875,-0.2709503173828125,0.0271759033203125
1731517654619273700,4.872273681640625,-0.93585205078125,-0.2779083251953125,0.017669677734375
1731517654629320700,4.88232080078125,-0.9347381591796875,-0.28167724609375,0.0162353515625
1731517654639368700,4.89236865234375,-0.9313812255859375,-0.278411865234375,0.019317626953125
1731517654649415700,4.902415771484375,-0.9341278076171875,-0.2784423828125,0.0173797607421875
1731517654659463700,4.912463623046875,-0.9447784423828125,-0.275726318359375,0.0194091796875
1731517654669511000,4.922510986328125,-0.9570159912109375,-0.2696380615234375,0.0179595947265625
1731517654679558700,4.93255859375,-0.96514892578125,-0.2659149169921875,0.02142333984375
1731517654689605600,4.942605712890625,-0.978271484375,-0.2673187255859375,0.027679443359375
1731517654699653600,4.952653564453125,-0.98516845703125,-0.2664642333984375,0.0331268310546875
1731517654709700900,4.962700927734375,-0.9842376708984375,-0.2623138427734375,0.033203125
1731517654719747800,4.972747802734375,-0.9763946533203125,-0.265289306640625,0.028228759765625
1731517654729795600,4.982795654296875,-0.9649810791015625,-0.2729034423828125,0.02587890625
1731517654739842600,4.992842529296875,-0.9528656005859375,-0.2790985107421875,0.0267791748046875
1731517654749890800,5.002890869140625,-0.9453582763671875,-0.279266357421875,0.024658203125
1731517654759937800,5.012937744140625,-0.9470672607421875,-0.2798309326171875,0.0248260498046875
1731517654769985800,5.02298583984375,-0.954254150390625,-0.279205322265625,0.0229644775390625
1731517654780032500,5.033032470703125,-0.9592437744140625,-0.2794342041015625,0.026092529296875
1731517654790080800,5.043080810546875,-0.954681396484375,-0.28033447265625,0.0285797119140625
1731517654800127700,5.053127685546875,-0.93896484375,-0.279541015625,0.0308685302734375
1731517654810175700,5.06317578125,-0.9262542724609375,-0.275634765625,0.0290985107421875
1731517654820222700,5.07322265625,-0.9297027587890625,-0.2787933349609375,0.032257080078125
1731517654830270700,5.083270751953125,-0.9444427490234375,-0.2783966064453125,0.03533935546875
1731517654840317700,5.093317626953125,-0.96356201171875,-0.271026611328125,0.03411865234375
1731517654850364700,5.10336474609375,-0.9691009521484375,-0.264068603515625,0.0264739990234375
1731517654860413000,5.113412841796875,-0.9520416259765625,-0.264312744140625,0.016754150390625
1731517654870459400,5.12345947265625,-0.9739532470703125,-0.293060302734375,0.0236053466796875
1731517654880507100,5.133507080078125,-0.9935302734375,-0.2897796630859375,0.025054931640625
1731517654890554000,5.14355419921875,-0.9835662841796875,-0.2647857666015625,0.0244903564453125
1731517654900602400,5.153602294921875,-0.966705322265625,-0.260650634765625,0.025848388671875
1731517654910649300,5.1636494140625,-0.9577789306640625,-0.2719879150390625,0.028472900390625
1731517654920697000,5.173697021484375,-0.9520721435546875,-0.2805023193359375,0.0221099853515625
1731517654930744000,5.183744140625,-0.9517669677734375,-0.281036376953125,0.0094757080078125
1731517654940792300,5.193792236328125,-0.9583892822265625,-0.279510498046875,0.00250244140625
1731517654950839300,5.20383935546875,-0.9608306884765625,-0.281463623046875,0.0057373046875
1731517654960887300,5.21388720703125,-0.9626922607421875,-0.2811126708984375,0.01800537109375
1731517654970934300,5.223934326171875,-0.9707183837890625,-0.27752685546875,0.0304107666015625
1731517654980982300,5.233982177734375,-0.9793243408203125,-0.271697998046875,0.0322265625
1731517654991029200,5.244029296875,-0.9882049560546875,-0.269012451171875,0.0310821533203125
1731517655001076200,5.254076171875,-0.9828033447265625,-0.270477294921875,0.034393310546875
1731517655011124200,5.264124267578125,-0.9595184326171875,-0.2736053466796875,0.0347747802734375
1731517655021171500,5.27417138671875,-0.93182373046875,-0.2750244140625,0.0277099609375
1731517655031219200,5.28421923828125,-0.9109344482421875,-0.280975341796875,0.021209716796875
1731517655041266200,5.29426611328125,-0.902557373046875,-0.2886199951171875,0.024505615234375
1731517655051314200,5.304314208984375,-0.9117279052734375,-0.287384033203125,0.025146484375
1731517655061361400,5.314361328125,-0.9404144287109375,-0.2838287353515625,0.022735595703125
1731517655071409200,5.3244091796875,-0.970184326171875,-0.2825775146484375,0.017425537109375
1731517655081456000,5.3344560546875,-0.9839935302734375,-0.27825927734375,0.0191192626953125
1731517655091504400,5.34450439453125,-0.9864349365234375,-0.279388427734375,0.0242919921875
1731517655101551400,5.35455126953125,-0.977783203125,-0.2763824462890625,0.0293426513671875
1731517655111599000,5.36459912109375,-0.96527099609375,-0.27557373046875,0.0299072265625
1731517655121646000,5.37464599609375,-0.9627227783203125,-0.282470703125,0.0299224853515625
1731517655131693000,5.384693115234375,-0.9607696533203125,-0.2863616943359375,0.026092529296875
1731517655141741300,5.3947412109375,-0.9598236083984375,-0.28082275390625,0.021514892578125
1731517655151788300,5.404788330078125,-0.9587249755859375,-0.27545166015625,0.0225372314453125
1731517655161836000,5.4148359375,-0.96136474609375,-0.276031494140625,0.0186004638671875
1731517655171883300,5.42488330078125,-0.96636962890625,-0.27764892578125,0.0104522705078125
1731517655181931300,5.43493115234375,-0.961578369140625,-0.273590087890625,-0.0014495849609375
1731517655191978200,5.444978271484375,-0.9442291259765625,-0.2736358642578125,-0.0078277587890625
1731517655202026200,5.455026123046875,-0.91839599609375,-0.2792816162109375,-0.0009307861328125
1731517655212073200,5.4650732421875,-0.8945465087890625,-0.2843170166015625,0.0086669921875
1731517655222121200,5.475121337890625,-0.887237548828125,-0.282318115234375,0.0111236572265625
1731517655232168200,5.485168212890625,-0.8937530517578125,-0.277496337890625,0.008697509765625
1731517655242216400,5.495216552734375,-0.9105224609375,-0.2758026123046875,0.001617431640625
1731517655252263400,5.505263427734375,-0.929351806640625,-0.2749176025390625,0.0055389404296875
1731517655262310100,5.51531005859375,-0.9422607421875,-0.2711029052734375,0.012908935546875
1731517655272358100,5.525358154296875,-0.94970703125,-0.2686004638671875,0.020172119140625
1731517655282405000,5.535405029296875,-0.948211669921875,-0.2742462158203125,0.03082275390625
1731517655292453400,5.545453369140625,-0.940185546875,-0.2777862548828125,0.0395660400390625
1731517655302500400,5.555500244140625,-0.9398956298828125,-0.2838592529296875,0.040802001953125
1731517655312548000,5.565548095703125,-0.9372711181640625,-0.285430908203125,0.0364837646484375
1731517655322595000,5.575594970703125,-0.927734375,-0.2869873046875,0.039520263671875
1731517655332643300,5.585643310546875,-0.923797607421875,-0.29541015625,0.0407562255859375
1731517655342690300,5.595690185546875,-0.9188079833984375,-0.2997894287109375,0.0363616943359375
1731517655352738000,5.605738037109375,-0.9163360595703125,-0.3010101318359375,0.0302886962890625
1731517655362785300,5.615785400390625,-0.9315643310546875,-0.3022308349609375,0.0231781005859375
1731517655372833300,5.625833251953125,-0.9571533203125,-0.2959136962890625,0.0179595947265625
1731517655382880300,5.63588037109375,-0.9817657470703125,-0.2850799560546875,0.021209716796875
1731517655392927200,5.64592724609375,-1.0035858154296875,-0.27398681640625,0.0334320068359375
1731517655402975200,5.655975341796875,-1.01776123046875,-0.2638397216796875,0.03436279296875
1731517655413022200,5.666022216796875,-1.0030975341796875,-0.2609710693359375,0.032745361328125
1731517655423070200,5.6760703125,-0.9610443115234375,-0.2731170654296875,0.02911376953125
1731517655433117200,5.6861171875,-0.9121856689453125,-0.291107177734375,0.0283050537109375
1731517655443165200,5.696165283203125,-0.8832244873046875,-0.3109283447265625,0.0305633544921875
1731517655453212200,5.706212158203125,-0.8893585205078125,-0.3139801025390625,0.027099609375
1731517655463260200,5.71626025390625,-0.9139251708984375,-0.301055908203125,0.0317535400390625
1731517655473307100,5.72630712890625,-0.9566802978515625,-0.28045654296875,0.055419921875
1731517655483355400,5.73635546875,-1.021209716796875,-0.249481201171875,0.0656585693359375
1731517655493402400,5.74640234375,-1.0804595947265625,-0.221527099609375,0.06292724609375
1731517655503450000,5.7564501953125,-1.1109161376953125,-0.21435546875,0.0644073486328125
1731517655513497000,5.7664970703125,-1.0966033935546875,-0.218536376953125,0.0797119140625
1731517655523544300,5.77654443359375,-1.0362548828125,-0.2352142333984375,0.0862579345703125
1731517655533592300,5.78659228515625,-0.970947265625,-0.2584381103515625,0.079742431640625
1731517655543639300,5.796639404296875,-0.9141845703125,-0.2758636474609375,0.07366943359375
1731517655553687300,5.806687255859375,-0.8823394775390625,-0.2879180908203125,0.0692138671875
1731517655563734300,5.816734375,-0.8849639892578125,-0.30035400390625,0.0697174072265625
1731517655573782300,5.8267822265625,-0.896575927734375,-0.31182861328125,0.072418212890625
1731517655583829200,5.836829345703125,-0.921234130859375,-0.3163299560546875,0.0677642822265625
1731517655593877200,5.846877197265625,-0.95843505859375,-0.311981201171875,0.065643310546875
1731517655603924200,5.85692431640625,-0.989501953125,-0.3085784912109375,0.0682830810546875
1731517655613972200,5.86697216796875,-1.00457763671875,-0.3062896728515625,0.072357177734375
1731517655624019200,5.877019287109375,-1.0064544677734375,-0.3074493408203125,0.0697784423828125
1731517655634067200,5.887067138671875,-0.9923248291015625,-0.3078765869140625,0.0630645751953125
1731517655644114200,5.8971142578125,-0.9746246337890625,-0.30657958984375,0.04840087890625
1731517655654162200,5.907162109375,-0.9604644775390625,-0.3072052001953125,0.0337371826171875
1731517655664209200,5.917209228515625,-0.962127685546875,-0.30169677734375,0.0255889892578125
1731517655674256400,5.92725634765625,-0.97735595703125,-0.287994384765625,0.0236663818359375
1731517655684304100,5.93730419921875,-0.991455078125,-0.2761993408203125,0.0205841064453125
1731517655694351000,5.94735107421875,-1.007293701171875,-0.274169921875,0.010955810546875
1731517655704399400,5.9573994140625,-1.0117645263671875,-0.2808074951171875,0.01629638671875
1731517655714446300,5.9674462890625,-0.9968109130859375,-0.280426025390625,0.034027099609375
1731517655724494300,5.977494384765625,-0.98077392578125,-0.2822723388671875,0.051788330078125
1731517655734541000,5.987541015625,-0.9455718994140625,-0.285186767578125,0.058990478515625
1731517655744589300,5.99758935546875,-0.88623046875,-0.2988739013671875,0.0594024658203125
1731517655754636300,6.00763623046875,-0.83245849609375,-0.3218536376953125,0.060089111328125
1731517655764684300,6.017684326171875,-0.8140716552734375,-0.3505401611328125,0.0536041259765625
1731517655774731300,6.027731201171875,-0.8238525390625,-0.3620147705078125,0.0461578369140625
1731517655784778200,6.0377783203125,-0.838043212890625,-0.36602783203125,0.0388641357421875
1731517655794826200,6.047826171875,-0.8619232177734375,-0.3686981201171875,0.0532989501953125
1731517655804873200,6.057873291015625,-0.88690185546875,-0.35882568359375,0.074493408203125
1731517655814921200,6.067921142578125,-0.9077911376953125,-0.3434600830078125,0.0867919921875
1731517655824968400,6.077968505859375,-0.9367523193359375,-0.336090087890625,0.090972900390625
1731517655835016200,6.08801611328125,-0.969268798828125,-0.3411865234375,0.099639892578125
1731517655845063200,6.098063232421875,-0.986175537109375,-0.3460845947265625,0.112152099609375
1731517655855111200,6.108111083984375,-0.98992919921875,-0.3475341796875,0.112762451171875
1731517655865158400,6.118158447265625,-0.978424072265625,-0.3616485595703125,0.0982818603515625
1731517655875206400,6.128206298828125,-0.9542694091796875,-0.381256103515625,0.0685577392578125
1731517655885253400,6.13825341796875,-0.926971435546875,-0.3989715576171875,0.0405731201171875
1731517655895300400,6.14830029296875,-0.9051666259765625,-0.407257080078125,0.0242767333984375
1731517655905348400,6.158348388671875,-0.9022064208984375,-0.4046630859375,0.01861572265625
1731517655915395300,6.168395263671875,-0.9294891357421875,-0.3967437744140625,0.0254669189453125
1731517655925443300,6.178443359375,-0.9663238525390625,-0.3774566650390625,0.0454559326171875
1731517655935490300,6.188490234375,-0.9935760498046875,-0.352996826171875,0.0702362060546875
1731517655945538300,6.198538330078125,-0.9911651611328125,-0.3359375,0.08807373046875
1731517655955585300,6.208585205078125,-0.968902587890625,-0.330535888671875,0.0897064208984375
1731517655965633300,6.21863330078125,-0.94427490234375,-0.3390655517578125,0.086883544921875
1731517655975680300,6.22868017578125,-0.9286346435546875,-0.355865478515625,0.078094482421875
1731517655985728300,6.238728271484375,-0.9190216064453125,-0.373779296875,0.0720977783203125
1731517655995775500,6.248775390625,-0.915740966796875,-0.3844757080078125,0.069305419921875
1731517656005823500,6.258823486328125,-0.94293212890625,-0.3899383544921875,0.0783538818359375
1731517656015870200,6.2688701171875,-0.9939727783203125,-0.382293701171875,0.079986572265625
1731517656025917200,6.278917236328125,-1.0414276123046875,-0.3647308349609375,0.067230224609375
1731517656035965400,6.28896533203125,-1.060089111328125,-0.354736328125,0.0557098388671875
1731517656046012400,6.299012451171875,-1.075836181640625,-0.358489990234375,0.045562744140625
1731517656056060400,6.309060302734375,-1.07958984375,-0.3628082275390625,0.0425872802734375
1731517656066107400,6.319107421875,-1.07415771484375,-0.3597564697265625,0.032928466796875
1731517656076155400,6.3291552734375,-1.077880859375,-0.35150146484375,0.0186920166015625
1731517656086202400,6.339202392578125,-1.0854949951171875,-0.342437744140625,0.0129241943359375
1731517656096250400,6.34925048828125,-1.0872039794921875,-0.342315673828125,0.0241546630859375
1731517656106297300,6.35929736328125,-1.08245849609375,-0.34136962890625,0.0325927734375
1731517656116345300,6.369345458984375,-1.0636749267578125,-0.3424530029296875,0.0416412353515625
1731517656126392300,6.379392333984375,-1.03521728515625,-0.3441009521484375,0.0481414794921875
1731517656136440300,6.3894404296875,-1.0093536376953125,-0.3514862060546875,0.0449371337890625
1731517656146487600,6.399487548828125,-0.989044189453125,-0.354766845703125,0.0362396240234375
1731517656156534500,6.409534423828125,-0.987396240234375,-0.345428466796875,0.022186279296875
1731517656166582300,6.419582275390625,-1.0088958740234375,-0.3268890380859375,0.0122528076171875
1731517656176629200,6.429629150390625,-1.0607757568359375,-0.305572509765625,-0.00067138671875
1731517656186677500,6.439677490234375,-1.1224822998046875,-0.2822723388671875,-0.014862060546875
1731517656196724500,6.449724365234375,-1.15771484375,-0.2664947509765625,-0.0348968505859375
1731517656206772200,6.459772216796875,-1.1797332763671875,-0.262847900390625,-0.0633392333984375
1731517656216819200,6.469819091796875,-1.1653900146484375,-0.2666015625,-0.078826904296875
1731517656226867500,6.479867431640625,-1.1101226806640625,-0.2772369384765625,-0.08782958984375
1731517656236914400,6.48991455078125,-1.0453338623046875,-0.278656005859375,-0.09735107421875
1731517656246962400,6.49996240234375,-1.0052642822265625,-0.26898193359375,-0.103240966796875
1731517656257009200,6.510009033203125,-0.99273681640625,-0.258087158203125,-0.1015472412109375
1731517656267056400,6.520056396484375,-0.98883056640625,-0.251434326171875,-0.087615966796875
1731517656277104400,6.5301044921875,-0.973724365234375,-0.2471466064453125,-0.0673370361328125
1731517656287151400,6.5401513671875,-0.928466796875,-0.2445831298828125,-0.05645751953125
1731517656297199400,6.550199462890625,-0.861785888671875,-0.24609375,-0.0505218505859375
1731517656307246300,6.560246337890625,-0.8138580322265625,-0.2625732421875,-0.0494537353515625
1731517656317294300,6.57029443359375,-0.7831573486328125,-0.2818603515625,-0.046844482421875
1731517656327341300,6.58034130859375,-0.7631378173828125,-0.2894439697265625,-0.0563201904296875
1731517656337389600,6.5903896484375,-0.7549591064453125,-0.2889251708984375,-0.0719757080078125
1731517656347436500,6.6004365234375,-0.7480010986328125,-0.287109375,-0.0818634033203125
1731517656357484300,6.610484375,-0.7409820556640625,-0.276947021484375,-0.09210205078125
1731517656367531300,6.62053125,-0.7343292236328125,-0.262969970703125,-0.093292236328125
1731517656377578200,6.630578125,-0.7415313720703125,-0.249237060546875,-0.0879364013671875
1731517656387626500,6.64062646484375,-0.770416259765625,-0.2315826416015625,-0.0766143798828125
1731517656397673500,6.650673583984375,-0.8139801025390625,-0.2063446044921875,-0.0525360107421875
1731517656407721200,6.66072119140625,-0.8624114990234375,-0.18511962890625,-0.0225982666015625
1731517656417768200,6.670768310546875,-0.90069580078125,-0.1719512939453125,-0.0003204345703125
1731517656427816400,6.68081640625,-0.9246826171875,-0.1727294921875,0.0125885009765625
1731517656437863400,6.690863525390625,-0.93115234375,-0.1947784423828125,0.0159149169921875
1731517656447911200,6.7009111328125,-0.9137420654296875,-0.223876953125,0.0087127685546875
1731517656457958400,6.71095849609375,-0.8564605712890625,-0.2491455078125,-0.0050811767578125
1731517656468006400,6.72100634765625,-0.7885894775390625,-0.2809906005859375,-0.0154876708984375
1731517656478053400,6.731053466796875,-0.73565673828125,-0.31719970703125,-0.0250701904296875
1731517656488101000,6.74110107421875,-0.7212982177734375,-0.3463134765625,-0.0445404052734375
1731517656498148400,6.7511484375,-0.73406982421875,-0.3630218505859375,-0.0600433349609375
1731517656508195300,6.7611953125,-0.75323486328125,-0.3659210205078125,-0.06170654296875
1731517656518243300,6.771243408203125,-0.7752532958984375,-0.3604888916015625,-0.054229736328125
1731517656528290300,6.781290283203125,-0.791107177734375,-0.351837158203125,-0.034210205078125
1731517656538338300,6.79133837890625,-0.8119964599609375,-0.3505401611328125,-0.01715087890625
1731517656548385300,6.80138525390625,-0.8411865234375,-0.3528900146484375,-0.01953125
1731517656558433300,6.811433349609375,-0.8633880615234375,-0.3535919189453125,-0.03466796875
1731517656568480300,6.821480224609375,-0.86871337890625,-0.3550872802734375,-0.030426025390625
1731517656578528500,6.831528564453125,-0.87371826171875,-0.3552093505859375,-0.0015869140625
1731517656588575500,6.841575439453125,-0.8901214599609375,-0.3508758544921875,0.0236358642578125
1731517656598623200,6.851623291015625,-0.91522216796875,-0.354644775390625,0.0302734375
1731517656608670500,6.86167041015625,-0.932861328125,-0.3674163818359375,0.0206756591796875
1731517656618717400,6.871717529296875,-0.93743896484375,-0.38134765625,0.002777099609375
1731517656628765400,6.881765380859375,-0.93670654296875,-0.3896026611328125,0.0025634765625
1731517656638812400,6.8918125,-0.9445953369140625,-0.403411865234375,0.0013580322265625
1731517656648860400,6.9018603515625,-0.9743194580078125,-0.4274139404296875,0.0131988525390625
1731517656658907400,6.911907470703125,-1.0269927978515625,-0.448394775390625,0.0297088623046875
1731517656668955400,6.921955322265625,-1.0836944580078125,-0.4599761962890625,0.0435943603515625
1731517656679002400,6.93200244140625,-1.1285858154296875,-0.4571685791015625,0.0512237548828125
1731517656689050400,6.94205029296875,-1.1609344482421875,-0.4465179443359375,0.068206787109375
1731517656699097300,6.952097412109375,-1.190399169921875,-0.4351806640625,0.0914306640625
1731517656709145300,6.962145263671875,-1.2181854248046875,-0.4266204833984375,0.107177734375
1731517656719192300,6.9721923828125,-1.2374420166015625,-0.410736083984375,0.103790283203125
1731517656729240300,6.982240234375,-1.25531005859375,-0.3879547119140625,0.09051513671875
1731517656739287300,6.992287353515625,-1.26910400390625,-0.3682708740234375,0.0699005126953125
1731517656749334300,7.002334228515625,-1.2723236083984375,-0.3502044677734375,0.059295654296875
1731517656759382300,7.01238232421875,-1.2514801025390625,-0.3348846435546875,0.052001953125
1731517656769429500,7.022429443359375,-1.238128662109375,-0.33642578125,0.049346923828125
1731517656779477200,7.032477294921875,-1.2306365966796875,-0.3518829345703125,0.032470703125
1731517656789524200,7.042524169921875,-1.2136077880859375,-0.364288330078125,0.0147247314453125
1731517656799572500,7.052572509765625,-1.1783447265625,-0.3773651123046875,0.0133819580078125
1731517656809619500,7.062619384765625,-1.128387451171875,-0.37554931640625,0.020904541015625
1731517656819667500,7.07266748046875,-1.0805206298828125,-0.35186767578125,0.01788330078125
1731517656829714200,7.082714111328125,-1.0565338134765625,-0.3192901611328125,0.013092041015625
1731517656839762400,7.092762451171875,-1.0777130126953125,-0.2860107421875,0.0256195068359375
1731517656849809400,7.102809326171875,-1.1209564208984375,-0.2478179931640625,0.049774169921875
1731517656859856400,7.1128564453125,-1.13409423828125,-0.2081146240234375,0.0858154296875
1731517656869904400,7.122904296875,-1.093048095703125,-0.1812591552734375,0.139739990234375
1731517656879951400,7.132951416015625,-1.0224609375,-0.1643829345703125,0.196746826171875
1731517656889999400,7.142999267578125,-0.957000732421875,-0.154693603515625,0.214447021484375
1731517656900046300,7.15304638671875,-0.919921875,-0.15875244140625,0.200958251953125
1731517656910094300,7.16309423828125,-0.9135589599609375,-0.17864990234375,0.1609954833984375
1731517656920141300,7.173141357421875,-0.921173095703125,-0.1975860595703125,0.099273681640625
1731517656930189300,7.183189208984375,-0.921661376953125,-0.202972412109375,0.0307769775390625
1731517656940236300,7.193236328125,-0.912994384765625,-0.1963043212890625,-0.0205841064453125
1731517656950284300,7.2032841796875,-0.9221038818359375,-0.19378662109375,-0.03558349609375
1731517656960331300,7.213331298828125,-0.9492034912109375,-0.186859130859375,-0.0125732421875
1731517656970378200,7.223378173828125,-0.9776458740234375,-0.169586181640625,0.0248565673828125
1731517656980426200,7.23342626953125,-0.9799346923828125,-0.1454620361328125,0.0408477783203125
1731517656990473200,7.24347314453125,-0.9436492919921875,-0.1343841552734375,0.036865234375
1731517657000521200,7.253521240234375,-0.875640869140625,-0.1416168212890625,0.0247344970703125
1731517657010568400,7.263568359375,-0.800262451171875,-0.160888671875,0.01910400390625
1731517657020616200,7.2736162109375,-0.7511444091796875,-0.179168701171875,0.0126953125
1731517657030663200,7.2836630859375,-0.707733154296875,-0.178558349609375,-0.002349853515625
1731517657040711200,7.293711181640625,-0.6641387939453125,-0.1839447021484375,-0.001708984375
1731517657050758400,7.30375830078125,-0.6541290283203125,-0.202362060546875,0.00250244140625
1731517657060806400,7.313806396484375,-0.6433563232421875,-0.22515869140625,0.0142669677734375
1731517657070853000,7.32385302734375,-0.6356964111328125,-0.239410400390625,0.029632568359375
1731517657080900000,7.333900146484375,-0.6345977783203125,-0.24554443359375,0.0429534912109375
1731517657090948400,7.3439482421875,-0.6393585205078125,-0.25140380859375,0.04669189453125
1731517657100995300,7.353995361328125,-0.6637115478515625,-0.2589569091796875,0.0290679931640625
1731517657111043300,7.364043212890625,-0.7129974365234375,-0.2721710205078125,0.006317138671875
1731517657121090000,7.374090087890625,-0.7627410888671875,-0.2813262939453125,-0.0086669921875
1731517657131138300,7.38413818359375,-0.79681396484375,-0.284515380859375,-0.0077667236328125
1731517657141185300,7.394185302734375,-0.8191070556640625,-0.286529541015625,0.004638671875
1731517657151233300,7.4042333984375,-0.8230133056640625,-0.303497314453125,0.0139617919921875
1731517657161280300,7.4142802734375,-0.8193359375,-0.3356781005859375,0.00830078125
1731517657171328300,7.424328369140625,-0.8076171875,-0.37030029296875,0.0021209716796875
1731517657181375200,7.434375244140625,-0.7978668212890625,-0.3956451416015625,-0.008453369140625
1731517657191422200,7.444422119140625,-0.80462646484375,-0.40997314453125,-0.0082550048828125
1731517657201470500,7.454470458984375,-0.8422698974609375,-0.416046142578125,-0.0047760009765625
1731517657211517400,7.464517333984375,-0.9188690185546875,-0.4170684814453125,0.005157470703125
1731517657221565200,7.474565185546875,-1.000244140625,-0.3991241455078125,0.0108795166015625
1731517657231612200,7.484612060546875,-1.0987091064453125,-0.3861846923828125,0.0127105712890625
1731517657241660400,7.494660400390625,-1.23358154296875,-0.3750152587890625,0.0096893310546875
1731517657251707400,7.504707275390625,-1.3530731201171875,-0.3553619384765625,0.0095062255859375
1731517657261755100,7.514755126953125,-1.42950439453125,-0.3393096923828125,0.0082855224609375
1731517657271802000,7.524802001953125,-1.43914794921875,-0.32122802734375,0.002838134765625
1731517657281850400,7.534850341796875,-1.370880126953125,-0.309814453125,-0.00433349609375
1731517657291897300,7.5448974609375,-1.274932861328125,-0.3194732666015625,0.0032958984375
1731517657301944300,7.5549443359375,-1.2049102783203125,-0.345306396484375,0.0119171142578125
1731517657311992000,7.564991943359375,-1.1514434814453125,-0.3749847412109375,0.013427734375
1731517657322039300,7.575039306640625,-1.101806640625,-0.3795318603515625,0.013641357421875
1731517657332087300,7.58508740234375,-1.0567169189453125,-0.3737945556640625,-0.0041961669921875
1731517657342134300,7.59513427734375,-1.0053253173828125,-0.36053466796875,-0.0301361083984375
1731517657352182300,7.605182373046875,-0.966156005859375,-0.3392486572265625,-0.054351806640625
1731517657362229200,7.615229248046875,-0.98919677734375,-0.3071441650390625,-0.07623291015625
1731517657372277200,7.62527734375,-1.11102294921875,-0.2623748779296875,-0.0915069580078125
1731517657382324200,7.63532421875,-1.255859375,-0.208343505859375,-0.094879150390625
1731517657392372500,7.64537255859375,-1.338714599609375,-0.1634063720703125,-0.061767578125
1731517657402419500,7.65541943359375,-1.323089599609375,-0.1385650634765625,0.0108489990234375
1731517657412466200,7.665466064453125,-1.1862945556640625,-0.1520538330078125,0.0810089111328125
1731517657422514200,7.67551416015625,-0.9990692138671875,-0.1914215087890625,0.113525390625
1731517657432561200,7.68556103515625,-0.8497467041015625,-0.2320098876953125,0.0950775146484375
1731517657442609400,7.695609375,-0.7458343505859375,-0.258392333984375,0.0133819580078125
1731517657452656400,7.705656494140625,-0.7049102783203125,-0.26971435546875,-0.071533203125
1731517657462704000,7.7157041015625,-0.75360107421875,-0.261138916015625,-0.1320648193359375
1731517657472751400,7.72575146484375,-0.88623046875,-0.249847412109375,-0.1493988037109375
1731517657482799400,7.73579931640625,-1.000152587890625,-0.2278289794921875,-0.1153717041015625
1731517657492846300,7.745846435546875,-1.0738983154296875,-0.2055511474609375,-0.0610809326171875
1731517657502894000,7.75589404296875,-1.0912017822265625,-0.1930084228515625,-0.00933837890625
1731517657512941300,7.76594140625,-1.0301055908203125,-0.1993560791015625,0.0166473388671875
1731517657522988300,7.77598828125,-0.8951263427734375,-0.2197113037109375,0.007659912109375
1731517657533036300,7.786036376953125,-0.75970458984375,-0.2640838623046875,-0.0153045654296875
1731517657543083300,7.796083251953125,-0.673980712890625,-0.3090057373046875,-0.026153564453125
1731517657553131300,7.80613134765625,-0.6301727294921875,-0.3320159912109375,-0.0269775390625
1731517657563178200,7.81617822265625,-0.6255035400390625,-0.3359222412109375,-0.00836181640625
1731517657573226200,7.826226318359375,-0.6498870849609375,-0.32177734375,0.0249786376953125
1731517657583273200,7.836273193359375,-0.6840667724609375,-0.3014678955078125,0.06170654296875
1731517657593321200,7.8463212890625,-0.7089996337890625,-0.2920379638671875,0.0856170654296875
1731517657603368200,7.8563681640625,-0.7138519287109375,-0.2945709228515625,0.0896759033203125
1731517657613416200,7.866416259765625,-0.6945953369140625,-0.3100433349609375,0.07940673828125
1731517657623463200,7.876463134765625,-0.65228271484375,-0.3293609619140625,0.0659027099609375
1731517657633510400,7.886510498046875,-0.619476318359375,-0.34814453125,0.0583343505859375
1731517657643558100,7.89655810546875,-0.6085205078125,-0.36712646484375,0.05291748046875
1731517657653605000,7.906605224609375,-0.621063232421875,-0.382598876953125,0.05816650390625
1731517657663653400,7.9166533203125,-0.65301513671875,-0.392364501953125,0.08355712890625
1731517657673700400,7.926700439453125,-0.6897430419921875,-0.392181396484375,0.113525390625
1731517657683748400,7.936748291015625,-0.7215423583984375,-0.392486572265625,0.1319427490234375
1731517657693795300,7.94679541015625,-0.742645263671875,-0.398162841796875,0.1465606689453125
1731517657703843300,7.95684326171875,-0.7738037109375,-0.40960693359375,0.1450347900390625
1731517657713890300,7.966890380859375,-0.8206329345703125,-0.4262542724609375,0.127471923828125
1731517657723938300,7.976938232421875,-0.891326904296875,-0.4272918701171875,0.102691650390625
1731517657733985300,7.9869853515625,-0.96820068359375,-0.4138336181640625,0.090057373046875
1731517657744032300,7.9970322265625,-1.0361175537109375,-0.4003143310546875,0.0842437744140625
1731517657754080300,8.007080322265624,-1.093292236328125,-0.4079132080078125,0.089141845703125
1731517657764127200,8.017127197265625,-1.1389312744140625,-0.4223785400390625,0.1164093017578125
1731517657774175200,8.02717529296875,-1.1673583984375,-0.42681884765625,0.1403656005859375
1731517657784222500,8.037222412109376,-1.1850738525390625,-0.4230804443359375,0.1630706787109375
1731517657794270200,8.047270263671875,-1.1999969482421875,-0.414642333984375,0.183349609375
1731517657804317200,8.057317138671875,-1.202484130859375,-0.4031524658203125,0.19793701171875
1731517657814365400,8.067365478515624,-1.19866943359375,-0.3920135498046875,0.2029571533203125
1731517657824412400,8.077412353515625,-1.1954193115234375,-0.3893585205078125,0.193359375
1731517657834459400,8.08745947265625,-1.201873779296875,-0.4040374755859375,0.17657470703125
1731517657844507100,8.097507080078126,-1.2120819091796875,-0.4106292724609375,0.161529541015625
1731517657854554000,8.10755419921875,-1.2275390625,-0.4038543701171875,0.1372222900390625
1731517657864602400,8.117602294921875,-1.2585296630859375,-0.39215087890625,0.10113525390625
1731517657874649900,8.12764990234375,-1.3054656982421875,-0.367156982421875,0.0835113525390625
1731517657884697600,8.137697509765625,-1.3829803466796875,-0.3224945068359375,0.0718841552734375
1731517657894744600,8.14774462890625,-1.4771728515625,-0.2552642822265625,0.052947998046875
1731517657904792800,8.157792724609376,-1.563873291015625,-0.1911773681640625,0.0387115478515625
1731517657914839800,8.16783984375,-1.6014251708984375,-0.1526031494140625,0.0615997314453125
1731517657924887600,8.177887451171875,-1.51617431640625,-0.12945556640625,0.082672119140625
1731517657934934500,8.1879345703125,-1.308319091796875,-0.1494293212890625,0.0905303955078125
1731517657944981800,8.197981689453124,-1.091796875,-0.22149658203125,0.089141845703125
1731517657955029800,8.20802978515625,-0.8974609375,-0.2808074951171875,0.0697174072265625
1731517657965076700,8.21807666015625,-0.751068115234375,-0.303985595703125,0.038238525390625
1731517657975124700,8.228124755859374,-0.6800079345703125,-0.3068695068359375,0.004119873046875
1731517657985171700,8.238171630859375,-0.6885833740234375,-0.2999725341796875,-0.0280609130859375
1731517657995219700,8.2482197265625,-0.79766845703125,-0.277069091796875,-0.032745361328125
1731517658005266700,8.2582666015625,-0.9373931884765625,-0.2225799560546875,-0.012481689453125
1731517658015315000,8.26831494140625,-1.02020263671875,-0.158233642578125,0.023681640625
1731517658025361700,8.278361572265625,-1.0504150390625,-0.117706298828125,0.0654754638671875
1731517658035409700,8.28840966796875,-1.0177459716796875,-0.1058502197265625,0.088043212890625
1731517658045456600,8.29845654296875,-0.9207763671875,-0.1126861572265625,0.0823211669921875
1731517658055504000,8.30850390625,-0.8017425537109375,-0.1368560791015625,0.0612945556640625
1731517658065552000,8.3185517578125,-0.707977294921875,-0.1602325439453125,0.0334625244140625
1731517658075598600,8.3285986328125,-0.639007568359375,-0.16815185546875,0.0064849853515625
1731517658085646600,8.338646484375,-0.58624267578125,-0.1739501953125,-0.0116119384765625
1731517658095693800,8.34869384765625,-0.552978515625,-0.179840087890625,-0.0253143310546875
1731517658105741800,8.358741943359375,-0.5558013916015625,-0.1916961669921875,-0.028228759765625
1731517658115788800,8.368788818359375,-0.5946807861328125,-0.204345703125,-0.02960205078125
1731517658125836800,8.3788369140625,-0.6322174072265625,-0.2078857421875,-0.0475921630859375
1731517658135883800,8.3888837890625,-0.6406707763671875,-0.2102508544921875,-0.0619659423828125
1731517658145931800,8.398931884765625,-0.63568115234375,-0.2280120849609375,-0.07391357421875
1731517658155978800,8.408978759765626,-0.62445068359375,-0.2514190673828125,-0.079803466796875
1731517658166025700,8.419025634765624,-0.6039886474609375,-0.264739990234375,-0.0750274658203125
1731517658176073700,8.42907373046875,-0.5836029052734375,-0.274810791015625,-0.062835693359375
1731517658186120700,8.43912060546875,-0.5826263427734375,-0.2946014404296875,-0.0488739013671875
1731517658196168700,8.449168701171875,-0.6020660400390625,-0.3181304931640625,-0.01849365234375
1731517658206215700,8.459215576171875,-0.636260986328125,-0.3385772705078125,0.0142974853515625
1731517658216263700,8.469263671875,-0.6692352294921875,-0.3486175537109375,0.038177490234375
1731517658226310700,8.479310546875,-0.695770263671875,-0.351593017578125,0.0469970703125
1731517658236358700,8.489358642578125,-0.7278289794921875,-0.3602752685546875,0.0444488525390625
1731517658246406000,8.499406005859376,-0.773773193359375,-0.37554931640625,0.0432891845703125
1731517658256452900,8.509452880859374,-0.8484954833984375,-0.390716552734375,0.031890869140625
1731517658266500600,8.51950048828125,-0.95330810546875,-0.39483642578125,0.01654052734375
1731517658276547600,8.529547607421875,-1.06951904296875,-0.3910675048828125,0.0017242431640625
1731517658286595800,8.539595947265624,-1.185791015625,-0.3812713623046875,-0.0174560546875
1731517658296642800,8.549642822265625,-1.277923583984375,-0.3707733154296875,-0.03173828125
1731517658306690800,8.55969091796875,-1.3289947509765625,-0.36383056640625,-0.03271484375
1731517658316737500,8.569737548828124,-1.3258819580078125,-0.3561859130859375,-0.019317626953125
1731517658326785800,8.579785888671875,-1.279022216796875,-0.3508453369140625,0.01483154296875
1731517658336832800,8.589832763671875,-1.238677978515625,-0.3430328369140625,0.0433197021484375
1731517658346880800,8.599880859375,-1.239715576171875,-0.3414306640625,0.0644989013671875
1731517658356927700,8.609927734375,-1.2738494873046875,-0.350128173828125,0.069732666015625
1731517658366974700,8.619974609375,-1.2891998291015625,-0.3555450439453125,0.06231689453125
1731517658377022700,8.630022705078124,-1.2720184326171875,-0.360321044921875,0.0453948974609375
1731517658387069700,8.640069580078125,-1.236602783203125,-0.3653717041015625,0.029266357421875
1731517658397117700,8.65011767578125,-1.1913909912109375,-0.362060546875,0.0106201171875
1731517658407165000,8.6601650390625,-1.1819610595703125,-0.3381195068359375,-0.00836181640625
1731517658417212700,8.670212646484375,-1.28271484375,-0.292633056640625,-0.045745849609375
1731517658427259600,8.680259765625,-1.44989013671875,-0.235809326171875,-0.07568359375
1731517658437308000,8.690307861328124,-1.5456695556640625,-0.188507080078125,-0.06939697265625
1731517658447355000,8.70035498046875,-1.52716064453125,-0.166473388671875,-0.015625
1731517658457401900,8.71040185546875,-1.3609466552734375,-0.2002716064453125,0.029541015625
1731517658467449600,8.72044970703125,-1.127105712890625,-0.2692108154296875,0.0348968505859375
1731517658477496600,8.73049658203125,-0.9097442626953125,-0.32830810546875,-0.0028533935546875
1731517658487544800,8.740544921875,-0.731719970703125,-0.3583831787109375,-0.075103759765625
1731517658497591800,8.750591796875,-0.638671875,-0.355682373046875,-0.1430206298828125
1731517658507639600,8.7606396484375,-0.661041259765625,-0.348236083984375,-0.18719482421875
1731517658517686800,8.770686767578125,-0.799957275390625,-0.32403564453125,-0.18310546875
1731517658527734800,8.78073486328125,-0.9275360107421875,-0.2576446533203125,-0.1317901611328125
1731517658537781800,8.79078173828125,-1.013702392578125,-0.2001953125,-0.072479248046875
1731517658547829500,8.80082958984375,-1.0623931884765625,-0.179046630859375,-0.0202484130859375
1731517658557876700,8.810876708984376,-1.0290679931640625,-0.177825927734375,0.012420654296875
1731517658567923700,8.820923828125,-0.918701171875,-0.1883697509765625,0.017059326171875
1731517658577971700,8.8309716796875,-0.7841949462890625,-0.2095184326171875,0.0021209716796875
1731517658588018700,8.841018798828125,-0.691986083984375,-0.2386016845703125,-0.0116729736328125
1731517658598066700,8.851066650390624,-0.648681640625,-0.2619171142578125,-0.021575927734375
1731517658608113700,8.86111376953125,-0.6469573974609375,-0.2673492431640625,-0.0220947265625
1731517658618161700,8.87116162109375,-0.6599884033203125,-0.2534027099609375,0.0016937255859375
1731517658628208600,8.881208740234374,-0.6657257080078125,-0.24835205078125,0.0363922119140625
1731517658638257000,8.8912568359375,-0.674224853515625,-0.2671661376953125,0.06048583984375
1731517658648303900,8.901303955078125,-0.663055419921875,-0.2841033935546875,0.0643463134765625
1731517658658351600,8.9113515625,-0.6195526123046875,-0.2916412353515625,0.0538787841796875
1731517658668398600,8.921398681640625,-0.562225341796875,-0.3146820068359375,0.03826904296875
1731517658678445800,8.93144580078125,-0.525482177734375,-0.3535308837890625,0.0323028564453125
1731517658688493800,8.941493896484374,-0.515655517578125,-0.39227294921875,0.02667236328125
1731517658698540800,8.951540771484375,-0.506195068359375,-0.4187774658203125,0.0252532958984375
1731517658708588800,8.9615888671875,-0.535552978515625,-0.4350738525390625,0.045257568359375
1731517658718635800,8.9716357421875,-0.60040283203125,-0.43768310546875,0.0752410888671875
1731517658728683800,8.981683837890625,-0.6676025390625,-0.4136810302734375,0.103363037109375
1731517658738730800,8.991730712890625,-0.7224578857421875,-0.390411376953125,0.1208953857421875
1731517658748778800,9.00177880859375,-0.764892578125,-0.3890838623046875,0.1348724365234375
1731517658758825700,9.01182568359375,-0.8114471435546875,-0.3921966552734375,0.1539154052734375
1731517658768872700,9.021872802734375,-0.868988037109375,-0.3906707763671875,0.162384033203125
1731517658778920700,9.031920654296876,-0.9306640625,-0.386993408203125,0.156951904296875
1731517658788968000,9.041968017578125,-0.998382568359375,-0.3917388916015625,0.1439208984375
1731517658799015700,9.052015625,-1.063629150390625,-0.395263671875,0.1226806640625
1731517658809062700,9.062062744140626,-1.130096435546875,-0.3981781005859375,0.11993408203125
1731517658819110700,9.072110595703125,-1.199432373046875,-0.4035797119140625,0.1353759765625
1731517658829158000,9.082157958984375,-1.24365234375,-0.4055633544921875,0.1654205322265625
1731517658839205600,9.09220556640625,-1.2547149658203125,-0.39898681640625,0.1963348388671875
1731517658849252600,9.102252685546874,-1.24456787109375,-0.3974761962890625,0.209136962890625
1731517658859300600,9.112300537109375,-1.2222747802734375,-0.407379150390625,0.190673828125
1731517658869347600,9.12234765625,-1.1942291259765625,-0.421142578125,0.1666259765625
1731517658879394600,9.13239453125,-1.1731719970703125,-0.4265594482421875,0.1458892822265625
1731517658889442600,9.142442626953125,-1.18505859375,-0.42022705078125,0.126251220703125
1731517658899489500,9.152489501953125,-1.22711181640625,-0.3907928466796875,0.1092529296875
1731517658909537500,9.16253759765625,-1.2915191650390625,-0.3461151123046875,0.081573486328125
1731517658919584500,9.17258447265625,-1.3696441650390625,-0.2930145263671875,0.0546112060546875
1731517658929632800,9.1826328125,-1.468353271484375,-0.235137939453125,0.0350799560546875
1731517658939679700,9.1926796875,-1.5564727783203125,-0.1826934814453125,0.011322021484375
1731517658949727500,9.2027275390625,-1.5845794677734375,-0.144866943359375,0.0127410888671875
1731517658959774500,9.2127744140625,-1.50103759765625,-0.1509552001953125,0.0343017578125
1731517658969821700,9.22282177734375,-1.282501220703125,-0.179412841796875,0.0774078369140625
1731517658979869700,9.23286962890625,-1.0648956298828125,-0.229461669921875,0.0990142822265625
1731517658989916700,9.242916748046875,-0.898895263671875,-0.2760162353515625,0.0567169189453125
1731517658999964700,9.252964599609374,-0.828643798828125,-0.295989990234375,0.022613525390625
1731517659010011600,9.26301171875,-0.825958251953125,-0.259429931640625,0.096893310546875
1731517659020059600,9.2730595703125,-0.8470611572265625,-0.222686767578125,0.038482666015625
1731517659030106600,9.283106689453126,-0.9422149658203125,-0.200775146484375,0.0283660888671875
1731517659040154600,9.293154541015625,-1.033203125,-0.1752471923828125,0.0372772216796875
1731517659050201600,9.30320166015625,-1.07122802734375,-0.1461029052734375,0.0220184326171875
1731517659060248600,9.31324853515625,-1.0609588623046875,-0.1264801025390625,0.013916015625
1731517659070296600,9.323296630859375,-0.998626708984375,-0.119659423828125,0.01904296875
1731517659080343800,9.33334375,-0.91046142578125,-0.1344757080078125,0.01373291015625
1731517659090391600,9.3433916015625,-0.840362548828125,-0.161712646484375,0.0044097900390625
1731517659100438500,9.3534384765625,-0.792877197265625,-0.1791229248046875,-0.0020751953125
1731517659110486500,9.363486572265625,-0.74566650390625,-0.1874237060546875,-0.0030059814453125
1731517659120533800,9.37353369140625,-0.7028961181640625,-0.1943359375,-0.001739501953125
1731517659130581500,9.38358154296875,-0.66448974609375,-0.200408935546875,0.0045013427734375
1731517659140628500,9.39362841796875,-0.6368560791015625,-0.20257568359375,0.0147247314453125
1731517659150675500,9.403675537109375,-0.6336822509765625,-0.20721435546875,0.022186279296875
1731517659160723700,9.4137236328125,-0.6439666748046875,-0.20904541015625,0.0179443359375
1731517659170770700,9.423770751953125,-0.6588134765625,-0.210601806640625,0.0153045654296875
1731517659180818400,9.433818359375,-0.6607208251953125,-0.2133636474609375,0.00946044921875
1731517659190865400,9.443865478515624,-0.6526641845703125,-0.2253570556640625,0.0010528564453125
1731517659200913700,9.45391357421875,-0.63641357421875,-0.2428741455078125,-0.000701904296875
1731517659210960600,9.463960693359375,-0.60968017578125,-0.2571258544921875,-0.0003204345703125
1731517659221008600,9.474008544921874,-0.587066650390625,-0.274169921875,-0.0055694580078125
1731517659231055600,9.4840556640625,-0.5808868408203125,-0.2922210693359375,-0.01434326171875
1731517659241103600,9.494103515625,-0.5917510986328125,-0.3162841796875,-0.0099639892578125
1731517659251150600,9.504150634765624,-0.6290130615234375,-0.3353118896484375,0.0018310546875
1731517659261197600,9.514197509765625,-0.684722900390625,-0.344085693359375,0.023529052734375
1731517659271245800,9.524245849609375,-0.751953125,-0.3498687744140625,0.0512542724609375
1731517659281292800,9.534292724609376,-0.8094329833984375,-0.339630126953125,0.064208984375
1731517659291340500,9.544340576171875,-0.87158203125,-0.328369140625,0.0794830322265625
1731517659301387500,9.554387451171875,-0.9362030029296875,-0.3302459716796875,0.0947265625
1731517659311435800,9.564435791015624,-0.9847412109375,-0.3383941650390625,0.10113525390625
1731517659321482800,9.574482666015625,-1.0395965576171875,-0.344573974609375,0.0970306396484375
1731517659331530500,9.584530517578125,-1.0855255126953125,-0.3401031494140625,0.0763397216796875
1731517659341577500,9.594577392578126,-1.11651611328125,-0.33441162109375,0.0420684814453125
1731517659351624400,9.60462451171875,-1.158599853515625,-0.331085205078125,0.0098876953125
1731517659361672700,9.614672607421875,-1.2093048095703125,-0.3282928466796875,-0.0089874267578125
1731517659371719700,9.6247197265625,-1.267822265625,-0.3199462890625,0.001556396484375
1731517659381767400,9.634767333984374,-1.3356170654296875,-0.31195068359375,0.0294189453125
1731517659391814700,9.644814697265625,-1.380340576171875,-0.317840576171875,0.0559539794921875
1731517659401862700,9.654862548828126,-1.3565216064453125,-0.329925537109375,0.083282470703125
1731517659411909600,9.66490966796875,-1.265625,-0.348297119140625,0.1057281494140625
1731517659421957400,9.674957275390625,-1.2013397216796875,-0.379150390625,0.121124267578125
1731517659432004600,9.685004638671876,-1.1949615478515625,-0.3809051513671875,0.10906982421875
1731517659442051600,9.695051513671874,-1.2481689453125,-0.343170166015625,0.046905517578125
1731517659452099600,9.705099609375,-1.4290618896484375,-0.2821502685546875,-0.043670654296875
1731517659462146600,9.715146484375,-1.657928466796875,-0.1753387451171875,-0.09515380859375
1731517659472194600,9.725194580078124,-1.8450164794921875,-0.0811614990234375,-0.0878753662109375
1731517659482241500,9.735241455078125,-1.9022369384765625,-0.044891357421875,-0.036407470703125
1731517659492289500,9.74528955078125,-1.7187042236328125,-0.0576324462890625,0.02899169921875
1731517659502336500,9.75533642578125,-1.368194580078125,-0.1262359619140625,0.055877685546875
1731517659512384800,9.765384765625,-1.0467987060546875,-0.2314605712890625,0.0359954833984375
1731517659522431500,9.775431396484375,-0.7633209228515625,-0.301788330078125,-0.0494232177734375
1731517659532478500,9.785478515625,-0.5713043212890625,-0.34820556640625,-0.1452789306640625
1731517659542526700,9.795526611328125,-0.4975433349609375,-0.372955322265625,-0.2093505859375
1731517659552573700,9.80557373046875,-0.5127716064453125,-0.36187744140625,-0.2414093017578125
1731517659562621700,9.81562158203125,-0.6194610595703125,-0.3242950439453125,-0.208251953125
1731517659572668700,9.825668701171875,-0.755828857421875,-0.2562713623046875,-0.1202545166015625
1731517659582716700,9.835716552734375,-0.8555908203125,-0.1828765869140625,-0.0308837890625
1731517659592763600,9.845763671875,-0.9302215576171875,-0.13568115234375,0.021026611328125
1731517659602811600,9.855811767578125,-0.9422760009765625,-0.1263580322265625,0.0426788330078125
1731517659612858600,9.865858642578125,-0.8878326416015625,-0.1423492431640625,0.0406341552734375
1731517659622905600,9.875905517578126,-0.7816162109375,-0.17523193359375,0.027008056640625
1731517659632953600,9.88595361328125,-0.658935546875,-0.2150115966796875,0.012908935546875
1731517659643000600,9.89600048828125,-0.577667236328125,-0.2474517822265625,0.011260986328125
1731517659653048600,9.906048583984376,-0.528167724609375,-0.266143798828125,0.00885009765625
1731517659663095800,9.916095703125,-0.5145416259765625,-0.28045654296875,0.0197601318359375
1731517659673143600,9.9261435546875,-0.5409393310546875,-0.2869720458984375,0.035064697265625
1731517659683190500,9.9361904296875,-0.5761566162109375,-0.275482177734375,0.048370361328125
1731517659693238500,9.946238525390624,-0.61700439453125,-0.2714996337890625,0.06890869140625
1731517659703285800,9.95628564453125,-0.647705078125,-0.2766265869140625,0.0836029052734375
1731517659713332700,9.966332763671875,-0.6502838134765625,-0.2841644287109375,0.095184326171875
1731517659723380500,9.97638037109375,-0.6357269287109375,-0.298095703125,0.103179931640625
1731517659733427500,9.986427490234375,-0.6136932373046875,-0.32135009765625,0.1087188720703125
1731517659743475700,9.996475830078126,-0.6156768798828125,-0.3562164306640625,0.0988006591796875
1731517659753522700,10.006522705078124,-0.645172119140625,-0.3851470947265625,0.0785369873046875
1731517659763570400,10.0165703125,-0.68695068359375,-0.3933868408203125,0.0785064697265625
1731517659773617400,10.026617431640625,-0.73968505859375,-0.3997650146484375,0.085540771484375
1731517659783665700,10.036665771484374,-0.7966156005859375,-0.406097412109375,0.0962982177734375
1731517659793712600,10.046712646484375,-0.8553009033203125,-0.3951416015625,0.1049957275390625
1731517659803760600,10.0567607421875,-0.9093017578125,-0.3826904296875,0.1266021728515625
1731517659813807400,10.066807373046874,-0.953399658203125,-0.371429443359375,0.15472412109375
1731517659823854600,10.0768544921875,-0.9862213134765625,-0.364990234375,0.1828460693359375
1731517659833902600,10.086902587890625,-1.02520751953125,-0.3558197021484375,0.202239990234375
1731517659843949600,10.096949462890626,-1.0787811279296875,-0.3477783203125,0.219268798828125
1731517659853997800,10.106997802734375,-1.1478271484375,-0.3516082763671875,0.2328338623046875
1731517659864044500,10.11704443359375,-1.2064208984375,-0.3606109619140625,0.2372589111328125
1731517659874092500,10.127092529296876,-1.241119384765625,-0.3647613525390625,0.239501953125
1731517659884139500,10.137139404296875,-1.24871826171875,-0.3530120849609375,0.226776123046875
1731517659894187500,10.1471875,-1.260986328125,-0.3397369384765625,0.1929779052734375
1731517659904234500,10.157234375,-1.285003662109375,-0.34814453125,0.1573944091796875
1731517659914281700,10.16728173828125,-1.30084228515625,-0.371185302734375,0.1293182373046875
1731517659924329500,10.17732958984375,-1.3164825439453125,-0.380615234375,0.1068572998046875
1731517659934376400,10.18737646484375,-1.34381103515625,-0.38153076171875,0.0718841552734375
1731517659944424700,10.1974248046875,-1.3697052001953125,-0.3704071044921875,0.0349273681640625
1731517659954471700,10.2074716796875,-1.4106597900390625,-0.3450927734375,0.01312255859375
1731517659964519400,10.21751953125,-1.4615325927734375,-0.30230712890625,0.0023040771484375
1731517659974566400,10.22756640625,-1.4886932373046875,-0.2433929443359375,-0.00091552734375
1731517659984614700,10.23761474609375,-1.466583251953125,-0.1924896240234375,0.006561279296875
1731517659994661600,10.24766162109375,-1.3790283203125,-0.1729583740234375,0.0416717529296875
1731517660004708600,10.25770849609375,-1.2422332763671875,-0.183837890625,0.07232666015625
1731517660014756400,10.26775634765625,-1.089813232421875,-0.2169189453125,0.089599609375
1731517660024803600,10.277803466796875,-0.940887451171875,-0.24737548828125,0.0963897705078125
1731517660034851600,10.2878515625,-0.8354339599609375,-0.264923095703125,0.0877838134765625
1731517660044898600,10.297898681640625,-0.7988433837890625,-0.2763671875,0.047698974609375
1731517660054946300,10.3079462890625,-0.84527587890625,-0.277008056640625,0.0039520263671875
1731517660064993500,10.31799365234375,-0.9443511962890625,-0.25244140625,-0.0304107666015625
1731517660075041500,10.32804150390625,-1.0039825439453125,-0.2013702392578125,-0.0336456298828125
1731517660085088500,10.338088623046875,-1.0121612548828125,-0.1551513671875,-0.0157623291015625
1731517660095135500,10.348135498046876,-0.9943695068359375,-0.1347503662109375,-0.00128173828125
1731517660105183500,10.35818359375,-0.9362030029296875,-0.1361541748046875,0.0056304931640625
1731517660115230500,10.36823046875,-0.858428955078125,-0.14312744140625,0.0140838623046875
1731517660125278500,10.378278564453124,-0.7926483154296875,-0.15228271484375,0.010772705078125
1731517660135325400,10.388325439453125,-0.758880615234375,-0.1560211181640625,-0.00042724609375
1731517660145373700,10.398373779296875,-0.7460479736328125,-0.164825439453125,-0.0152587890625
1731517660155420400,10.40842041015625,-0.74908447265625,-0.1746826171875,-0.0222320556640625
1731517660165467400,10.41846728515625,-0.7635040283203125,-0.1731414794921875,-0.02093505859375
1731517660175515400,10.428515380859375,-0.7853851318359375,-0.1752777099609375,-0.0240478515625
1731517660185562600,10.438562744140626,-0.800628662109375,-0.183746337890625,-0.03045654296875
1731517660195610600,10.448610595703125,-0.790283203125,-0.18890380859375,-0.05755615234375
1731517660205657600,10.45865771484375,-0.7596588134765625,-0.20318603515625,-0.078582763671875
1731517660215705600,10.46870556640625,-0.71063232421875,-0.2286224365234375,-0.0950927734375
1731517660225752600,10.478752685546874,-0.6554718017578125,-0.2647552490234375,-0.1024932861328125
1731517660235800600,10.488800537109375,-0.620269775390625,-0.293426513671875,-0.096588134765625
1731517660245847600,10.49884765625,-0.5919036865234375,-0.3095855712890625,-0.0830078125
1731517660255895600,10.5088955078125,-0.581512451171875,-0.3192138671875,-0.052032470703125
1731517660265942500,10.518942626953125,-0.6032867431640625,-0.333892822265625,-0.012115478515625
1731517660275989500,10.528989501953125,-0.6473846435546875,-0.3407135009765625,0.02911376953125
1731517660286037500,10.53903759765625,-0.702239990234375,-0.3433074951171875,0.0659942626953125
1731517660296084500,10.54908447265625,-0.7452392578125,-0.3390960693359375,0.0769805908203125
1731517660306132500,10.559132568359376,-0.777313232421875,-0.33160400390625,0.0706024169921875
1731517660316179500,10.569179443359374,-0.81805419921875,-0.3359375,0.06134033203125
1731517660326227500,10.5792275390625,-0.8910980224609375,-0.3496856689453125,0.038818359375
1731517660336274700,10.589274658203125,-0.9701385498046875,-0.3650970458984375,0.0240020751953125
1731517660346322400,10.599322509765624,-1.0410308837890625,-0.3709716796875,0.0153350830078125
1731517660356369400,10.609369384765625,-1.084869384765625,-0.361785888671875,0.0003509521484375
1731517660366416400,10.61941650390625,-1.110870361328125,-0.348388671875,-0.0000152587890625
1731517660376464600,10.629464599609374,-1.1220703125,-0.344818115234375,0.00115966796875
1731517660386511600,10.63951171875,-1.135650634765625,-0.3426971435546875,0.0043487548828125
1731517660396559400,10.649559326171875,-1.165985107421875,-0.3354339599609375,0.0073699951171875
1731517660406606300,10.6596064453125,-1.1865692138671875,-0.3226470947265625,0.0157318115234375
1731517660416654600,10.669654541015625,-1.210235595703125,-0.3227996826171875,0.0214385986328125
1731517660426701600,10.67970166015625,-1.2216796875,-0.334442138671875,0.0315399169921875
1731517660436749600,10.68974951171875,-1.1917724609375,-0.336334228515625,0.0395355224609375
1731517660446796500,10.699796630859375,-1.15435791015625,-0.3198089599609375,0.0511322021484375
1731517660456843500,10.709843505859375,-1.1473236083984375,-0.3160552978515625,0.0429229736328125
1731517660466891500,10.7198916015625,-1.1805267333984375,-0.3069000244140625,-0.003570556640625
1731517660476938500,10.7299384765625,-1.2515716552734375,-0.279541015625,-0.063873291015625
1731517660486986800,10.73998681640625,-1.339996337890625,-0.242523193359375,-0.1068115234375
1731517660497033500,10.750033447265626,-1.3968353271484375,-0.207122802734375,-0.127410888671875
1731517660507081500,10.76008154296875,-1.418701171875,-0.1648101806640625,-0.112396240234375
1731517660517128400,10.77012841796875,-1.3566131591796875,-0.141510009765625,-0.0551605224609375
1731517660527175400,10.780175537109375,-1.2042236328125,-0.1515655517578125,0.017547607421875
1731517660537223700,10.7902236328125,-1.01739501953125,-0.192962646484375,0.0592498779296875
1731517660547270700,10.800270751953125,-0.8464508056640625,-0.2339935302734375,0.0439605712890625
1731517660557318400,10.810318359375,-0.7122650146484375,-0.2660980224609375,0.0004119873046875
1731517660567365400,10.820365478515624,-0.668487548828125,-0.2866363525390625,-0.04998779296875
1731517660577413600,10.83041357421875,-0.731231689453125,-0.2887115478515625,-0.09149169921875
1731517660587460600,10.840460693359375,-0.8703155517578125,-0.2587890625,-0.1143646240234375
1731517660597508400,10.85050830078125,-0.9633941650390625,-0.2145843505859375,-0.0998077392578125
1731517660607555600,10.8605556640625,-1.0150604248046875,-0.1903076171875,-0.0580291748046875
1731517660617602600,10.8706025390625,-1.005035400390625,-0.1885833740234375,-0.0162353515625
1731517660627650600,10.880650634765624,-0.9342193603515625,-0.1999359130859375,0.0016937255859375
1731517660637697500,10.890697509765625,-0.831390380859375,-0.2199554443359375,-0.0042724609375
1731517660647745500,10.90074560546875,-0.7541961669921875,-0.2435150146484375,-0.0138702392578125
1731517660657792500,10.91079248046875,-0.7194366455078125,-0.2657318115234375,-0.0137176513671875
1731517660667840500,10.920840576171875,-0.7097930908203125,-0.273284912109375,-0.0023345947265625
1731517660677887500,10.930887451171875,-0.716094970703125,-0.2691802978515625,0.01922607421875
1731517660687935500,10.940935546875,-0.73870849609375,-0.26129150390625,0.035736083984375
1731517660697982500,10.950982421875,-0.760284423828125,-0.256317138671875,0.0455780029296875
1731517660708029400,10.961029541015625,-0.760711669921875,-0.258453369140625,0.042999267578125
1731517660718077400,10.971077392578126,-0.735809326171875,-0.2734527587890625,0.037322998046875
1731517660728124700,10.981124755859375,-0.698516845703125,-0.299224853515625,0.040985107421875
1731517660738172400,10.99117236328125,-0.671356201171875,-0.33642578125,0.04412841796875
1731517660748219400,11.001219482421876,-0.657073974609375,-0.3739776611328125,0.04644775390625
1731517660758267600,11.011267578125,-0.6570892333984375,-0.401885986328125,0.05804443359375
1731517660768314600,11.021314697265625,-0.676300048828125,-0.416656494140625,0.074920654296875
1731517660778362600,11.031362548828126,-0.7170257568359375,-0.4203338623046875,0.1047515869140625
1731517660788409300,11.041409423828124,-0.7841949462890625,-0.4206390380859375,0.1165924072265625
1731517660798456300,11.051456298828125,-0.8548736572265625,-0.4105072021484375,0.1168060302734375
1731517660808504600,11.061504638671876,-0.9192657470703125,-0.39471435546875,0.110748291015625
1731517660818551600,11.071551513671874,-1.0036468505859375,-0.3881683349609375,0.1006927490234375
1731517660828599600,11.081599609375,-1.078643798828125,-0.3857269287109375,0.092254638671875
1731517660838646500,11.091646484375,-1.099884033203125,-0.3785400390625,0.0991363525390625
1731517660848694500,11.101694580078124,-1.058563232421875,-0.3798065185546875,0.1272125244140625
1731517660858741500,11.111741455078125,-1.0177001953125,-0.393280029296875,0.1582794189453125
1731517660868789500,11.12178955078125,-1.012969970703125,-0.4048004150390625,0.175323486328125
1731517660878836000,11.1318359375,-1.0552520751953125,-0.409515380859375,0.1696319580078125
1731517660888883000,11.141883056640625,-1.115020751953125,-0.4115447998046875,0.1714935302734375
1731517660898931000,11.151930908203125,-1.15625,-0.408782958984375,0.1895294189453125
1731517660908978000,11.16197802734375,-1.1678314208984375,-0.3953704833984375,0.2062530517578125
1731517660919026000,11.17202587890625,-1.162139892578125,-0.3716278076171875,0.2016448974609375
1731517660929073200,11.1820732421875,-1.1551971435546875,-0.3577728271484375,0.17730712890625
1731517660939121000,11.192120849609376,-1.1634674072265625,-0.36785888671875,0.1656951904296875
1731517660949167900,11.20216796875,-1.186248779296875,-0.377044677734375,0.1668548583984375
1731517660959215900,11.2122158203125,-1.231231689453125,-0.3625030517578125,0.1524810791015625
1731517660969263000,11.22226318359375,-1.2931976318359375,-0.3214111328125,0.128753662109375
1731517660979310000,11.23231005859375,-1.369140625,-0.26373291015625,0.1072540283203125
1731517660989357800,11.24235791015625,-1.4397735595703125,-0.204986572265625,0.0996246337890625
1731517660999404800,11.25240478515625,-1.49505615234375,-0.14898681640625,0.120147705078125
1731517661009453000,11.262453125,-1.48406982421875,-0.1105804443359375,0.15106201171875
1731517661019500000,11.2725,-1.3592681884765625,-0.1014404296875,0.177398681640625
1731517661029548000,11.282548095703126,-1.173004150390625,-0.1381988525390625,0.174041748046875
1731517661039595000,11.292594970703124,-1.0082550048828125,-0.2078399658203125,0.15618896484375
1731517661049642000,11.30264208984375,-0.8888092041015625,-0.2645111083984375,0.112213134765625
1731517661059690000,11.31268994140625,-0.8421478271484375,-0.2942962646484375,0.037750244140625
1731517661069737000,11.322737060546874,-0.849578857421875,-0.2903900146484375,-0.037689208984375
1731517661079785000,11.332784912109375,-0.914031982421875,-0.27264404296875,-0.0800933837890625
1731517661089832200,11.342832275390625,-1.0051727294921875,-0.24365234375,-0.0792999267578125
1731517661099880000,11.3528798828125,-1.051483154296875,-0.1920013427734375,-0.0447540283203125
1731517661109927000,11.362927001953125,-1.0578765869140625,-0.1433868408203125,-0.0111083984375
1731517661119975200,11.37297509765625,-1.03558349609375,-0.127899169921875,-0.001800537109375
1731517661130022100,11.383022216796874,-0.96356201171875,-0.141876220703125,-0.006011962890625
1731517661140069000,11.393069091796875,-0.8511962890625,-0.160858154296875,-0.006256103515625
1731517661150116900,11.403116943359375,-0.7570037841796875,-0.1782989501953125,-0.0114593505859375
1731517661160163800,11.413163818359376,-0.6980133056640625,-0.1805572509765625,-0.028961181640625
1731517661170212000,11.423212158203125,-0.65411376953125,-0.17578125,-0.039154052734375
1731517661180259000,11.433259033203125,-0.6399688720703125,-0.173248291015625,-0.0341949462890625
1731517661190306800,11.443306884765626,-0.671417236328125,-0.179412841796875,-0.0048828125
1731517661200354000,11.45335400390625,-0.7194061279296875,-0.1728057861328125,0.0217437744140625
1731517661210402000,11.463402099609375,-0.75433349609375,-0.162841796875,0.0315704345703125
1731517661220449000,11.473448974609376,-0.7656097412109375,-0.1670684814453125,0.0304718017578125
1731517661230496000,11.48349609375,-0.74530029296875,-0.1852264404296875,0.0086822509765625
1731517661240544000,11.4935439453125,-0.6961212158203125,-0.218597412109375,-0.0186614990234375
1731517661250591000,11.503591064453126,-0.645843505859375,-0.25634765625,-0.0416412353515625
1731517661260639000,11.513638916015625,-0.6176300048828125,-0.29412841796875,-0.0503997802734375
1731517661270686000,11.52368603515625,-0.611297607421875,-0.3209686279296875,-0.0637359619140625
1731517661280734000,11.53373388671875,-0.6231842041015625,-0.348419189453125,-0.07440185546875
1731517661290781000,11.543781005859374,-0.626312255859375,-0.368988037109375,-0.0687255859375
1731517661300829000,11.553828857421875,-0.6284942626953125,-0.38031005859375,-0.0437774658203125
1731517661310876000,11.5638759765625,-0.6371612548828125,-0.38751220703125,0.002197265625
1731517661320923100,11.573923095703124,-0.6808929443359375,-0.4036102294921875,0.0268707275390625
1731517661330971000,11.583970947265625,-0.740203857421875,-0.4106292724609375,0.0284576416015625
1731517661341017900,11.594017822265625,-0.790252685546875,-0.3995513916015625,0.04229736328125
1731517661351065900,11.60406591796875,-0.8314056396484375,-0.3846282958984375,0.065673828125
1731517661361113000,11.614113037109375,-0.881195068359375,-0.3753204345703125,0.0924530029296875
1731517661371161000,11.6241611328125,-0.9577178955078125,-0.364837646484375,0.1053009033203125
1731517661381208000,11.6342080078125,-1.03973388671875,-0.34820556640625,0.0991668701171875
1731517661391254800,11.6442548828125,-1.0998992919921875,-0.3241119384765625,0.084991455078125
1731517661401303000,11.654302978515625,-1.153045654296875,-0.3149566650390625,0.06884765625
1731517661411350000,11.66435009765625,-1.20086669921875,-0.3300323486328125,0.062225341796875
1731517661421398000,11.67439794921875,-1.229583740234375,-0.3405609130859375,0.0609893798828125
1731517661431445000,11.684445068359375,-1.2294769287109375,-0.3354339599609375,0.0664215087890625
1731517661441493000,11.694492919921874,-1.2282257080078125,-0.341339111328125,0.0761260986328125
1731517661451540000,11.7045400390625,-1.2328948974609375,-0.3755950927734375,0.0849609375
1731517661461588000,11.714587890625,-1.2072906494140625,-0.4076080322265625,0.0774993896484375
1731517661471635000,11.724635009765626,-1.1759490966796875,-0.4156646728515625,0.05621337890625
1731517661481682200,11.73468212890625,-1.1708221435546875,-0.4124603271484375,0.0220794677734375
1731517661491730000,11.74472998046875,-1.1842193603515625,-0.3928985595703125,-0.026336669921875
1731517661501777000,11.75477685546875,-1.248321533203125,-0.3554840087890625,-0.06634521484375
1731517661511825200,11.7648251953125,-1.3898162841796875,-0.29449462890625,-0.0881805419921875
1731517661521872100,11.7748720703125,-1.503204345703125,-0.208343505859375,-0.0757598876953125
1731517661531920000,11.784919921875,-1.5482330322265625,-0.1326904296875,-0.0050048828125
1731517661541966800,11.794966796875,-1.50604248046875,-0.1021270751953125,0.0904693603515625
1731517661552015000,11.80501513671875,-1.3376922607421875,-0.1237945556640625,0.145263671875
1731517661562062000,11.81506201171875,-1.09844970703125,-0.188507080078125,0.144012451171875
1731517661572109000,11.825109130859374,-0.8892059326171875,-0.270599365234375,0.1062774658203125
1731517661582156800,11.83515673828125,-0.716644287109375,-0.328399658203125,0.0256805419921875
1731517661592204000,11.8452041015625,-0.607757568359375,-0.3547515869140625,-0.0497589111328125
1731517661602252000,11.855251953125,-0.5843658447265625,-0.3617706298828125,-0.102325439453125
1731517661612299000,11.865299072265625,-0.65997314453125,-0.3520050048828125,-0.1106109619140625
1731517661622346800,11.8753466796875,-0.797027587890625,-0.313690185546875,-0.0714111328125
1731517661632394000,11.88539404296875,-0.897735595703125,-0.254364013671875,-0.01995849609375
1731517661642442000,11.89544189453125,-0.9839935302734375,-0.2118377685546875,0.0204315185546875
1731517661652489000,11.905489013671875,-1.028472900390625,-0.189056396484375,0.0400848388671875
1731517661662536000,11.915535888671876,-1.0199127197265625,-0.181243896484375,0.045562744140625
1731517661672584000,11.925583984375,-0.967742919921875,-0.1888885498046875,0.0446624755859375
1731517661682631000,11.935630859375,-0.884857177734375,-0.2111663818359375,0.0451507568359375
1731517661692679000,11.945678955078124,-0.7902374267578125,-0.234893798828125,0.0542144775390625
1731517661702726000,11.955725830078125,-0.7146148681640625,-0.2563018798828125,0.069122314453125
1731517661712774100,11.965774169921875,-0.6664886474609375,-0.2647857666015625,0.090057373046875
1731517661722821000,11.975821044921876,-0.6335601806640625,-0.266815185546875,0.1017608642578125
1731517661732867800,11.985867919921875,-0.6108856201171875,-0.2733917236328125,0.1059417724609375
1731517661742915800,11.995915771484375,-0.597412109375,-0.2885589599609375,0.106170654296875
1731517661752963000,12.005963134765626,-0.593536376953125,-0.3131103515625,0.1025238037109375
1731517661763011000,12.016010986328125,-0.5917205810546875,-0.3411102294921875,0.0991058349609375
1731517661773058000,12.02605810546875,-0.60211181640625,-0.3634490966796875,0.090545654296875
1731517661783106000,12.03610595703125,-0.617095947265625,-0.37860107421875,0.0857696533203125
1731517661793153000,12.046153076171874,-0.6231536865234375,-0.3878021240234375,0.0944061279296875
1731517661803201000,12.056200927734375,-0.6406707763671875,-0.39178466796875,0.113372802734375
1731517661813248000,12.066248046875,-0.680389404296875,-0.3990631103515625,0.122283935546875
1731517661823295000,12.076294921875,-0.72216796875,-0.4008331298828125,0.1322021484375
1731517661833343000,12.086343017578125,-0.7459259033203125,-0.398284912109375,0.1545257568359375
1731517661843390000,12.096389892578125,-0.764617919921875,-0.3954620361328125,0.1772003173828125
1731517661853438000,12.10643798828125,-0.799591064453125,-0.3994293212890625,0.182281494140625
1731517661863485200,12.116485107421875,-0.85418701171875,-0.40631103515625,0.1836090087890625
1731517661873534000,12.126533935546876,-0.9073486328125,-0.4197998046875,0.188201904296875
1731517661883581000,12.136580810546874,-0.943023681640625,-0.445343017578125,0.1796875
1731517661893629000,12.14662890625,-0.972808837890625,-0.4569549560546875,0.167633056640625
1731517661903676000,12.156676025390626,-0.9949188232421875,-0.4623870849609375,0.146240234375
1731517661913723000,12.166722900390624,-1.0467376708984375,-0.475250244140625,0.151153564453125
1731517661923771000,12.17677099609375,-1.12481689453125,-0.4799652099609375,0.1735076904296875
1731517661933817900,12.18681787109375,-1.2014312744140625,-0.463104248046875,0.2037353515625
1731517661943865900,12.196865966796874,-1.2694854736328125,-0.4308929443359375,0.237335205078125
1731517661953913000,12.2069130859375,-1.30780029296875,-0.4011688232421875,0.26837158203125
1731517661963960800,12.2169609375,-1.309967041015625,-0.384185791015625,0.2878875732421875
1731517661974007800,12.2270078125,-1.285491943359375,-0.3700714111328125,0.28466796875
1731517661984054800,12.2370546875,-1.302520751953125,-0.3592681884765625,0.2505950927734375
1731517661994103000,12.24710302734375,-1.3673858642578125,-0.347076416015625,0.193145751953125
1731517662004150000,12.25714990234375,-1.4377593994140625,-0.31689453125,0.1425933837890625
1731517662014197800,12.26719775390625,-1.486175537109375,-0.2669677734375,0.1202392578125
1731517662024244700,12.27724462890625,-1.538055419921875,-0.2187957763671875,0.1090240478515625
1731517662034293000,12.28729296875,-1.5745849609375,-0.162261962890625,0.0873565673828125
1731517662044340000,12.297340087890625,-1.500030517578125,-0.1047515869140625,0.0836029052734375
1731517662054387700,12.3073876953125,-1.3451690673828125,-0.099945068359375,0.10595703125
1731517662064434700,12.3174345703125,-1.1735687255859375,-0.139068603515625,0.1332855224609375
1731517662074482000,12.32748193359375,-1.024688720703125,-0.1748504638671875,0.148345947265625
1731517662084530000,12.337530029296875,-0.9130401611328125,-0.1898040771484375,0.1237945556640625
1731517662094577000,12.347576904296876,-0.8848876953125,-0.193572998046875,0.0745849609375
1731517662104624600,12.357624755859375,-0.940826416015625,-0.185821533203125,0.0247039794921875
1731517662114671900,12.367671875,-1.028900146484375,-0.159576416015625,-0.0124969482421875
1731517662124719900,12.377719970703126,-1.07659912109375,-0.1361541748046875,-0.032867431640625
1731517662134766800,12.387766845703124,-1.074859619140625,-0.127349853515625,-0.037933349609375
1731517662144814800,12.39781494140625,-1.051971435546875,-0.1309051513671875,-0.047271728515625
1731517662154861800,12.40786181640625,-0.991180419921875,-0.1317901611328125,-0.058074951171875
1731517662164908800,12.41790869140625,-0.906158447265625,-0.1333770751953125,-0.053375244140625
1731517662174956800,12.427956787109375,-0.8231048583984375,-0.1421356201171875,-0.0490264892578125
1731517662185003800,12.438003662109375,-0.74212646484375,-0.1431427001953125,-0.053436279296875
1731517662195052000,12.448052001953124,-0.6755828857421875,-0.1463775634765625,-0.065948486328125
1731517662205098800,12.4580986328125,-0.6432037353515625,-0.164642333984375,-0.07269287109375
1731517662215146800,12.468146728515626,-0.64093017578125,-0.1859893798828125,-0.07415771484375
1731517662225193700,12.47819384765625,-0.6702423095703125,-0.197296142578125,-0.0642242431640625
1731517662235241000,12.488240966796875,-0.7135467529296875,-0.18963623046875,-0.060516357421875
1731517662245289000,12.4982890625,-0.7387847900390625,-0.17926025390625,-0.05816650390625
1731517662255335700,12.508335693359374,-0.72039794921875,-0.1816558837890625,-0.0538787841796875
1731517662265384000,12.518384033203125,-0.670623779296875,-0.2004852294921875,-0.0456695556640625
1731517662275431000,12.528430908203125,-0.619476318359375,-0.2283782958984375,-0.0381927490234375
1731517662285479000,12.53847900390625,-0.5883636474609375,-0.2581634521484375,-0.044036865234375
1731517662295526000,12.54852587890625,-0.572601318359375,-0.2844390869140625,-0.058197021484375
1731517662305574000,12.558573974609375,-0.572479248046875,-0.3080902099609375,-0.0628509521484375
1731517662315620900,12.568620849609376,-0.5928497314453125,-0.3288726806640625,-0.052490234375
1731517662325667800,12.578667724609375,-0.6196746826171875,-0.345367431640625,-0.0371246337890625
1731517662335715800,12.5887158203125,-0.657745361328125,-0.3611297607421875,-0.010894775390625
1731517662345763000,12.59876318359375,-0.7110443115234375,-0.3735809326171875,0.0067138671875
1731517662355810800,12.608810791015625,-0.7823486328125,-0.3884124755859375,0.0187225341796875
1731517662365857800,12.61885791015625,-0.855255126953125,-0.400665283203125,0.0174713134765625
1731517662375905800,12.62890576171875,-0.9178314208984375,-0.400665283203125,0.0155029296875
1731517662385953000,12.638953125,-0.9314117431640625,-0.402191162109375,0.026580810546875
1731517662396000000,12.649,-0.898040771484375,-0.409332275390625,0.050689697265625
1731517662406047700,12.6590478515625,-0.8793182373046875,-0.4117584228515625,0.0782318115234375
1731517662416094700,12.6690947265625,-0.909332275390625,-0.40484619140625,0.0809783935546875
1731517662426143000,12.67914306640625,-0.976776123046875,-0.388946533203125,0.070465087890625
1731517662436190000,12.68918994140625,-1.044708251953125,-0.3723907470703125,0.0567779541015625
1731517662446237700,12.69923779296875,-1.1043701171875,-0.3555908203125,0.0327301025390625
1731517662456284700,12.70928466796875,-1.165374755859375,-0.33843994140625,0.0234222412109375
1731517662466333000,12.7193330078125,-1.2242889404296875,-0.3232421875,0.0213165283203125
1731517662476380000,12.7293798828125,-1.300628662109375,-0.322998046875,0.0293731689453125
1731517662486427000,12.739427001953125,-1.389495849609375,-0.344512939453125,0.037933349609375
1731517662496474600,12.749474609375,-1.41162109375,-0.3535614013671875,0.0130157470703125
1731517662506521900,12.75952197265625,-1.3440093994140625,-0.34326171875,-0.0435028076171875
1731517662516569900,12.76956982421875,-1.2625885009765625,-0.3386077880859375,-0.1119232177734375
1731517662526616800,12.779616943359375,-1.256866455078125,-0.3335113525390625,-0.1569671630859375
1731517662536665000,12.7896650390625,-1.35736083984375,-0.3115386962890625,-0.186126708984375
1731517662546711800,12.7997119140625,-1.5107879638671875,-0.2392578125,-0.2003173828125
1731517662556759800,12.809759765625,-1.5846710205078125,-0.1441192626953125,-0.15753173828125
1731517662566806800,12.819806884765624,-1.59136962890625,-0.1041717529296875,-0.0356903076171875
1731517662576853800,12.829853759765625,-1.495849609375,-0.1060943603515625,0.083526611328125
1731517662586902000,12.839902099609375,-1.2713470458984375,-0.1142120361328125,0.1420135498046875
1731517662596948700,12.84994873046875,-1.0166473388671875,-0.157958984375,0.1423492431640625
1731517662606996700,12.859996826171875,-0.7910308837890625,-0.23101806640625,0.103973388671875
1731517662617044000,12.8700439453125,-0.622589111328125,-0.28729248046875,0.0308837890625
1731517662627092000,12.880092041015626,-0.534210205078125,-0.32373046875,-0.04486083984375
