time,seconds_elapsed,z,y,x
1731517649795228200,0.048228271484375,-9.29610344710648,-2.959706714683771,0.9964869261883199
1731517649805276200,0.058276123046875,-9.258891614565252,-3.076348057770729,0.9896403482291847
1731517649815323100,0.0683232421875,-9.214982914733886,-3.2045147112175822,0.9927544616617262
1731517649825371400,0.078371337890625,-9.167978586974739,-3.336657574819028,0.9926083311893046
1731517649835418000,0.088418212890625,-9.12062529964745,-3.470315811419487,0.9703037795964627
1731517649845466000,0.098466064453125,-9.070963150855897,-3.610209435278177,0.9243355168867856
1731517649855513300,0.108513427734375,-9.015441170120239,-3.76050521068573,0.8664924727924168
1731517649865561600,0.1185615234375,-8.954431113362311,-3.914341142918169,0.8163813381243497
1731517649875608300,0.1286083984375,-8.894187364801764,-4.055901823206246,0.7832486646555363
1731517649885656300,0.13865625,-8.839271533265709,-4.176898146632314,0.7688858658473938
1731517649895703300,0.148703369140625,-8.789030707803368,-4.278608170308172,0.7853894760765134
1731517649905751600,0.15875146484375,-8.745807652148605,-4.361698249188065,0.8104455913998186
1731517649915798500,0.168798583984375,-8.710517727580665,-4.432787801411748,0.804769226263836
1731517649925845500,0.178845458984375,-8.677135097938775,-4.508958602422475,0.7395941587809473
1731517649935893200,0.188893310546875,-8.635041338574887,-4.608412079343199,0.6074407007202506
1731517649945940500,0.1989404296875,-8.575909350648521,-4.737610413925349,0.4233385903660208
1731517649955988500,0.208988525390625,-8.498409931382536,-4.888444826254248,0.22476351709375156
1731517649966035500,0.219035400390625,-8.412962183460593,-5.038928233188391,0.04070341468376573
1731517649976083500,0.22908349609375,-8.333244503623247,-5.1684395792424676,-0.1210271934883669
1731517649986130400,0.23913037109375,-8.267680436822772,-5.26789597877264,-0.2551770677969791
1731517649996178400,0.249178466796875,-8.21958597573936,-5.337410829025506,-0.34761169719789176
1731517650006225400,0.259225341796875,-8.191002855333686,-5.3772571017235515,-0.4036902523703873
1731517650016273400,0.2692734375,-8.180039562770723,-5.391299655601382,-0.4372931371668353
1731517650026320400,0.2793203125,-8.17954330368638,-5.389584668377042,-0.46672169542070474
1731517650036368400,0.289368408203125,-8.179912136998771,-5.384730214083194,-0.513906786574237
1731517650046415400,0.299415283203125,-8.170717023152113,-5.389871084102988,-0.5992124956769869
1731517650056463400,0.30946337890625,-8.14625302850306,-5.412830519407987,-0.7142854569360614
1731517650066510300,0.31951025390625,-8.110621743151546,-5.449665919852256,-0.8302662172224372
1731517650076558300,0.329558349609375,-8.074210121077298,-5.488247871702909,-0.9255550487443804
1731517650086605300,0.339605224609375,-8.044441590279341,-5.520107237300277,-0.9928536111872642
1731517650096653600,0.349653564453125,-8.023641963356733,-5.5441229036599395,-1.0267707860972732
1731517650106700500,0.359700439453125,-8.011558142331243,-5.55915388405323,-1.0397744984466581
1731517650116748300,0.369748291015625,-8.002066091364622,-5.570366182941198,-1.0527766764260829
1731517650126795300,0.379795166015625,-7.987376471754908,-5.586060011157393,-1.0808015053618698
1731517650136843500,0.389843505859375,-7.9650658557474605,-5.606998169767857,-1.1356378419209272
1731517650146890500,0.399890380859375,-7.938835435947776,-5.624580003687739,-1.2285653511390089
1731517650156938200,0.409938232421875,-7.911829940122366,-5.6357765204846855,-1.3458661810480057
1731517650166985500,0.4199853515625,-7.886287502586841,-5.644779911151528,-1.4537268363080917
1731517650177033500,0.430033447265625,-7.866884882980584,-5.652519565492868,-1.5269349881209433
1731517650187080400,0.44008056640625,-7.8588506296068426,-5.6565001595616335,-1.553337403486669
1731517650197128200,0.450128173828125,-7.863809713318943,-5.654079069894552,-1.5369697676621377
1731517650207175400,0.460175537109375,-7.8802417926818125,-5.644878695350885,-1.4857722259968518
1731517650217223400,0.470223388671875,-7.901928723832964,-5.63341739013791,-1.4122732745438813
1731517650227270400,0.4802705078125,-7.920817548698186,-5.62605182980597,-1.3336315533749759
1731517650237318400,0.490318359375,-7.933627930432557,-5.6228919044703245,-1.269259765098989
1731517650247365400,0.500365478515625,-7.942485190626979,-5.619037567129731,-1.2303341143772006
1731517650257413400,0.510413330078125,-7.951106303977966,-5.611098006302118,-1.210732538132742
1731517650267460400,0.52046044921875,-7.96587015786767,-5.59464546867311,-1.1896391158953308
1731517650277508600,0.530508544921875,-7.994234667086601,-5.561376820799708,-1.1548508572392164
1731517650287555600,0.5405556640625,-8.036580355384945,-5.508870388492942,-1.1118028658904135
1731517650297603300,0.550603271484375,-8.083263780626654,-5.448717825347185,-1.0689721705541013
1731517650307650300,0.560650390625,-8.124208954477309,-5.394644289854169,-1.0321948569726198
1731517650317698600,0.570698486328125,-8.156651672920583,-5.349578236681222,-1.0106591708604247
1731517650327745500,0.58074560546875,-8.179740872085095,-5.314186020782589,-1.0107644578658044
1731517650337793300,0.590793212890625,-8.192042135253548,-5.291942624792457,-1.027704413685575
1731517650347840300,0.60084033203125,-8.194775359609723,-5.282344190841913,-1.0549359733518213
1731517650357888500,0.610888427734375,-8.191109822839499,-5.2832478616833685,-1.0786113018412142
1731517650367935500,0.620935546875,-8.185130748429893,-5.290284336191416,-1.0894542559601366
1731517650377983200,0.630983154296875,-8.178065632349252,-5.300494764560461,-1.0928786043856293
1731517650388030200,0.6410302734375,-8.168386534377932,-5.314655391860008,-1.0964860542930661
1731517650398078500,0.651078369140625,-8.155359295022487,-5.332735238429904,-1.1056373289979993
1731517650408125400,0.66112548828125,-8.139512322071194,-5.35245583794415,-1.126916336935386
1731517650418173400,0.67117333984375,-8.119592400592564,-5.373952799481153,-1.1675767024952917
1731517650428220400,0.681220458984375,-8.090272782605886,-5.401482026919722,-1.2417168013960123
1731517650438268400,0.691268310546875,-8.043524475434422,-5.447339522731304,-1.341116502302885
1731517650448315400,0.7013154296875,-7.975763775372505,-5.519192460542917,-1.447788093908876
1731517650458363400,0.71136328125,-7.892995475792884,-5.607831697982549,-1.556675607998669
1731517650468410400,0.721410400390625,-7.811473376882076,-5.694845964568853,-1.6492425402760504
1731517650478458400,0.731458251953125,-7.749811578217148,-5.761944401329756,-1.7061058526180684
1731517650488505300,0.74150537109375,-7.713216416269541,-5.802298623549937,-1.7349363719135522
1731517650498553600,0.7515537109375,-7.693686955413222,-5.820934350436926,-1.7590591519095002
1731517650508600600,0.7616005859375,-7.683871079319715,-5.824673536965251,-1.7893265721403062
1731517650518647600,0.7716474609375,-7.681556957158445,-5.81639495344162,-1.8258206118009983
1731517650528695300,0.7816953125,-7.687502129298448,-5.799033484274148,-1.8557756050817666
1731517650538742300,0.7917421875,-7.702666965204477,-5.778413305571675,-1.8572142595827579
1731517650548790500,0.80179052734375,-7.724267387115955,-5.755702292069793,-1.8379278137020765
1731517650558837500,0.81183740234375,-7.75169315418005,-5.726973041191696,-1.8120201961159705
1731517650568885200,0.82188525390625,-7.787897855505347,-5.685337546989321,-1.7877276125110684
1731517650578932200,0.83193212890625,-7.827569356158375,-5.633360691514611,-1.7789846263460813
1731517650588980500,0.84198046875,-7.852938775214552,-5.589726716971397,-1.8046290629513562
1731517650599027500,0.85202734375,-7.85023945312798,-5.57340218963623,-1.8658287970624863
1731517650609075200,0.8620751953125,-7.8206275741964575,-5.585269153040647,-1.952675013605505
1731517650619122400,0.872122314453125,-7.775687193229794,-5.613365951234102,-2.049194482900947
1731517650629170400,0.88217041015625,-7.727501546731591,-5.646220173087716,-2.139229558613151
1731517650639217400,0.892217529296875,-7.681498504969477,-5.680233501848578,-2.2135757745452223
1731517650649265400,0.902265380859375,-7.639783515790104,-5.715251039215922,-2.2671574348680674
1731517650659312400,0.9123125,-7.605180988964438,-5.747714800447225,-2.3011691561937333
1731517650669360400,0.9223603515625,-7.58214322772622,-5.771968951737881,-2.316432776299119
1731517650679407400,0.932407470703125,-7.578871074187755,-5.7817287137299775,-2.3027611015602947
1731517650689455600,0.94245556640625,-7.6017054218083615,-5.768536054679751,-2.2601873035944995
1731517650699502600,0.952502685546875,-7.6448758704930535,-5.732537689581513,-2.205509956989437
1731517650709550300,0.96255029296875,-7.686503765910864,-5.692752207159995,-2.1634717272050676
1731517650719597300,0.972597412109375,-7.703402878263592,-5.675337546500563,-2.1490717381916937
1731517650729645600,0.9826455078125,-7.689186136862635,-5.692142550829052,-2.155530266681313
1731517650739692500,0.992692626953125,-7.660792986071109,-5.733845849570631,-2.1460778170727193
1731517650749740300,1.002740234375,-7.633798011639714,-5.780930841350555,-2.115737916127592
1731517650759787300,1.012787353515625,-7.613278370702266,-5.809881041502952,-2.110367036744207
1731517650769835500,1.02283544921875,-7.598433852791786,-5.825183240053057,-2.121657953826338
1731517650779882500,1.032882568359375,-7.5887266977697605,-5.835284362828731,-2.1286326151445505
1731517650789930200,1.04293017578125,-7.582681572386622,-5.843016418385505,-2.1289630161426962
1731517650799977200,1.052977294921875,-7.577927655857801,-5.850778869080544,-2.124566680879891
1731517650810025500,1.063025390625,-7.572742946696281,-5.859507534459233,-2.1189896113999187
1731517650820072400,1.073072509765625,-7.567554145881533,-5.869512795644998,-2.109817001646012
1731517650830120400,1.083120361328125,-7.562875048154592,-5.8815194597810505,-2.0930916384249922
1731517650840167200,1.093167236328125,-7.559349796637893,-5.894060961446166,-2.0704259253695607
1731517650850215400,1.10321533203125,-7.561631770095229,-5.900681256368756,-2.043053788188845
1731517650860262400,1.113262451171875,-7.572624873274564,-5.89794978557825,-2.0099558207072317
1731517650870310100,1.12331005859375,-7.586775563701987,-5.889346207883953,-1.9816195146694777
1731517650880357000,1.133357177734375,-7.599393637734651,-5.879621517205238,-1.9620529366731643
1731517650890404000,1.143404052734375,-7.609474302244186,-5.87141190726459,-1.9475141237109899
1731517650900452000,1.1534521484375,-7.618761186027527,-5.8621735387980936,-1.9390172212615608
1731517650910499000,1.1634990234375,-7.6216645062536,-5.855436924019456,-1.947939801777154
1731517650920547000,1.173547119140625,-7.6155258573681115,-5.85565261259675,-1.9711622719325124
1731517650930594000,1.183593994140625,-7.609546198436617,-5.85591272483766,-1.9933578832581638
1731517650940642000,1.19364208984375,-7.613168480587005,-5.844774660229683,-2.0121287808321413
1731517650950689000,1.20368896484375,-7.628077295905351,-5.821064114296436,-2.024360193634778
1731517650960737000,1.213737060546875,-7.650729272696376,-5.788971524465084,-2.030894709970057
1731517650970784000,1.223783935546875,-7.675493711596727,-5.754040496337414,-2.0367111411638557
1731517650980832000,1.23383203125,-7.698286558163166,-5.721405470192432,-2.0426181732505557
1731517650990879000,1.24387890625,-7.7192258858174085,-5.690892258507013,-2.048825211197138
1731517651000927000,1.253927001953125,-7.745230095645785,-5.655756647717952,-2.0479770699352025
1731517651010974000,1.263973876953125,-7.784428718090057,-5.607490337198972,-2.0320196223467586
1731517651021022200,1.274022216796875,-7.843036974403262,-5.540452106192708,-1.9901118870742618
1731517651031069000,1.28406884765625,-7.922388743537664,-5.452727645510435,-1.9167410920456052
1731517651041117000,1.294116943359375,-8.01303347558081,-5.348350156190991,-1.8321636972174047
1731517651051164000,1.304163818359375,-8.101497940975428,-5.238597988095879,-1.7587533008307217
1731517651061212200,1.314212158203125,-8.179168625155091,-5.133729500389099,-1.7077498204328119
1731517651071259100,1.324259033203125,-8.244541553297639,-5.038021055215597,-1.6781712592490017
1731517651081307000,1.334306884765625,-8.30162829913199,-4.950067461952567,-1.6583698495835064
1731517651091354000,1.34435400390625,-8.354882919457554,-4.868067224135995,-1.6334752084322273
1731517651101402000,1.354402099609375,-8.40638338959217,-4.795584463988244,-1.5828678877450524
1731517651111449000,1.364448974609375,-8.460325992181897,-4.731554182626307,-1.4851482488796115
1731517651121496800,1.374496826171875,-8.519019004169106,-4.670447972017526,-1.3355223355576396
1731517651131544000,1.3845439453125,-8.581216809406875,-4.604643958981335,-1.1534080380197613
1731517651141592000,1.394592041015625,-8.642384687075019,-4.533771848900616,-0.9614994916982949
1731517651151639000,1.40463916015625,-8.694573723995685,-4.467563054455817,-0.784634785251692
1731517651161687000,1.41468701171875,-8.73083921559751,-4.418734726139903,-0.6462330073859542
1731517651171734000,1.424734130859375,-8.749326473924517,-4.3926583278581495,-0.5694103548703715
1731517651181781000,1.434781005859375,-8.75553175830543,-4.381237646916508,-0.5619687701601535
1731517651191829000,1.4448291015625,-8.75892666144073,-4.3689603491455316,-0.6031377062967047
1731517651201876000,1.4548759765625,-8.77039556543827,-4.337791303899884,-0.6588704437062144
1731517651211924000,1.464924072265625,-8.797349623337388,-4.2756966667756435,-0.7038739530369639
1731517651221971000,1.474970947265625,-8.841784977391361,-4.180269961152971,-0.7201118250019848
1731517651232019000,1.48501904296875,-8.903068590393662,-4.052259959572553,-0.6963786288455128
1731517651242066000,1.49506591796875,-8.976036211448907,-3.8972929774835703,-0.6420819521211087
1731517651252114200,1.5051142578125,-9.049812810799478,-3.7315202314808964,-0.5890915722222998
1731517651262161000,1.515160888671875,-9.112496938249468,-3.5805285827636717,-0.5591053435530513
1731517651272209000,1.525208984375,-9.157301710137725,-3.463513730189204,-0.5641625538773835
1731517651282256100,1.535256103515625,-9.184536923065782,-3.384519396190345,-0.5997464929558336
1731517651292304100,1.54530419921875,-9.199482563263178,-3.3321997186273333,-0.6605691373828798
1731517651302351000,1.55535107421875,-9.209853150629996,-3.285047506830096,-0.7466295373104512
1731517651312398800,1.56539892578125,-9.222095961609483,-3.231374953353405,-0.8255563590310514
1731517651322446000,1.575446044921875,-9.240212048536538,-3.1643174331247805,-0.8808867627173662
1731517651332494000,1.585494140625,-9.265093391814828,-3.0845281493559478,-0.9022828942283988
1731517651342541000,1.595541015625,-9.294577260452508,-2.999977642534673,-0.8839436660699546
1731517651352589000,1.605589111328125,-9.32462051653862,-2.918518379727006,-0.8390971739318221
1731517651362636000,1.615635986328125,-9.350530618342757,-2.8487884254187343,-0.7888989455021918
1731517651372684000,1.62568408203125,-9.368290731438995,-2.8017542870432135,-0.7454442730486392
1731517651382731000,1.63573095703125,-9.376495080682634,-2.7804773979976773,-0.7215773675099015
1731517651392779000,1.645779052734375,-9.37712110362649,-2.7793314428329468,-0.7178476063970476
1731517651402826000,1.655825927734375,-9.37407983623445,-2.7881071622237563,-0.7235102352686226
1731517651412873000,1.665873046875,-9.37126127168238,-2.7964523812428115,-0.7278051559835672
1731517651422921000,1.6759208984375,-9.371305695345997,-2.797344361646473,-0.7237905135147273
1731517651432968200,1.68596826171875,-9.375257063320278,-2.788398546385765,-0.7069459078282118
1731517651443016000,1.696015869140625,-9.382537283456324,-2.7709266025811434,-0.6784885326940566
1731517651453063000,1.70606298828125,-9.391627767884732,-2.748841612023115,-0.6415470415268093
1731517651463111000,1.71611083984375,-9.4009526455909,-2.725444662083685,-0.6036794850232079
1731517651473158100,1.726158203125,-9.408335741579531,-2.7064067841365933,-0.573552751904726
1731517651483206100,1.7362060546875,-9.411598542767763,-2.69909236947,-0.5541612382143736
1731517651493253000,1.746253173828125,-9.410255895987152,-2.7051047616273163,-0.5476113781794906
1731517651503300900,1.75630078125,-9.406135016664862,-2.718363179390132,-0.5527279540082439
1731517651513348000,1.76634814453125,-9.401956269675493,-2.7311829134747385,-0.5605690959626809
1731517651523396000,1.77639599609375,-9.399908104974031,-2.738080564033985,-0.5612699742410332
1731517651533443000,1.786443115234375,-9.401547104352712,-2.734895796518028,-0.5492166214190423
1731517651543491000,1.796490966796875,-9.407209952419995,-2.720163214549422,-0.5248739150620997
1731517651553538000,1.8065380859375,-9.41553880482614,-2.6970900897368786,-0.4936771050266921
1731517651563586000,1.8165859375,-9.42461993690431,-2.6708237218409776,-0.46219654614645983
1731517651573633000,1.826633056640625,-9.431939320006967,-2.649130360949039,-0.4370498664628714
1731517651583681000,1.836680908203125,-9.436082411161065,-2.6369460021585223,-0.42101427560430016
1731517651593728000,1.84672802734375,-9.437413952025771,-2.6332626374706622,-0.41416404438335447
1731517651603776000,1.85677587890625,-9.43689255850017,-2.6350150340959426,-0.41489100695103404
1731517651613823000,1.866822998046875,-9.435103336995839,-2.6406018943175673,-0.42004119278844443
1731517651623871000,1.87687109375,-9.432942944091558,-2.6476100195139645,-0.42442265927568074
1731517651633918000,1.88691796875,-9.43120749860108,-2.654009657423198,-0.42301973367519674
1731517651643966000,1.896966064453125,-9.430971351757645,-2.656032979944348,-0.4155157877858728
1731517651654013000,1.907012939453125,-9.432281849834322,-2.6529069568783044,-0.4056258235428482
1731517651664060200,1.91706005859375,-9.43389162311852,-2.6481764212250707,-0.3990404538031667
1731517651674108000,1.92710791015625,-9.434584281557798,-2.6458263509675857,-0.3982478055881336
1731517651684155000,1.93715478515625,-9.434379114374519,-2.645876619850099,-0.4027593647284433
1731517651694203100,1.947203125,-9.434198497110605,-2.645455179567635,-0.4097001603096723
1731517651704250000,1.95725,-9.434659684881568,-2.642720786167681,-0.41665966059137133
1731517651714298000,1.967298095703125,-9.435989472180605,-2.63717513473928,-0.4216632044997066
1731517651724345000,1.977344970703125,-9.438048742797971,-2.629833539804816,-0.4214147096313536
1731517651734393000,1.98739306640625,-9.439831534561515,-2.623468096426129,-0.4211685893831774
1731517651744440000,1.997440185546875,-9.440516009694337,-2.6222806402072307,-0.4131372951515019
1731517651754488000,2.007488037109375,-9.44056569405496,-2.6231393028631804,-0.4065042868778109
1731517651764535000,2.01753515625,-9.440523608478903,-2.6230609769299624,-0.40797972972523416
1731517651774583000,2.0275830078125,-9.439580774670839,-2.6254449494570493,-0.41441896899249403
1731517651784630000,2.037630126953125,-9.436588607117534,-2.634895207108557,-0.42250729064103215
1731517651794678000,2.047677978515625,-9.43262204157412,-2.648067992414534,-0.4286736312510446
1731517651804725000,2.05772509765625,-9.43012262597382,-2.6567802911803127,-0.42975638498645274
1731517651814773000,2.06777294921875,-9.430801255887745,-2.6549805482819675,-0.42596729490179563
1731517651824820000,2.077820068359375,-9.434101466476916,-2.644568752121925,-0.41757524106632915
1731517651834868000,2.087867919921875,-9.437767003247142,-2.633823193962872,-0.4023805945439264
1731517651844915000,2.0979150390625,-9.440271095022558,-2.6274901915490627,-0.3846610691864043
1731517651854963000,2.107962890625,-9.440990056946873,-2.626748725531995,-0.3718679308477789
1731517651865010700,2.1180107421875,-9.440092231324314,-2.6306778816744685,-0.36685149092525243
1731517651875057700,2.1280576171875,-9.438482458040118,-2.6365947045028206,-0.3657906567607075
1731517651885106000,2.13810595703125,-9.436989004611968,-2.642110837575793,-0.3645161067802459
1731517651895153000,2.14815283203125,-9.435898871287703,-2.6463398534476754,-0.36206184549592435
1731517651905200600,2.15820068359375,-9.434806399875878,-2.650326292735338,-0.3613636340986937
1731517651915247600,2.16824755859375,-9.433839600670337,-2.653394448134303,-0.36408447389733045
1731517651925295900,2.1782958984375,-9.432941190525888,-2.6560955237865445,-0.36764563697762787
1731517651935342800,2.1883427734375,-9.432183065634966,-2.658869956935942,-0.36703272924367336
1731517651945390600,2.198390625,-9.4317844217062,-2.6611650821357964,-0.360589836714603
1731517651955437600,2.2084375,-9.432236257126927,-2.660836873094737,-0.3510656370440498
1731517651965485800,2.21848583984375,-9.433682364282012,-2.6570319278538226,-0.3408866997918114
1731517651975532800,2.22853271484375,-9.435560433113574,-2.6519159000143406,-0.3285263268472627
1731517651985580800,2.238580810546875,-9.437430318638683,-2.6463077047437427,-0.31992695040404795
1731517651995627500,2.24862744140625,-9.43849648656547,-2.644005565281212,-0.3072449077570811
1731517652005675800,2.25867578125,-9.438193704226613,-2.646557587851584,-0.2943171832533553
1731517652015722800,2.26872265625,-9.436678038966654,-2.6525267253890634,-0.2891179889087565
1731517652025770800,2.278770751953125,-9.434610585042833,-2.6596935482785105,-0.2907504672151059
1731517652035817700,2.288817626953125,-9.432750636389851,-2.6658386269047853,-0.2947991946166381
1731517652045865700,2.29886572265625,-9.431265950790047,-2.671074481731653,-0.2949042441600002
1731517652055912700,2.30891259765625,-9.43013899258673,-2.6753391534388062,-0.2922714845036156
1731517652065960700,2.318960693359375,-9.429890570783614,-2.676540638183057,-0.2892780748412944
1731517652076008000,2.329008056640625,-9.430672076550126,-2.6741011360764504,-0.286333472756762
1731517652086055000,2.339054931640625,-9.431803710928559,-2.670037247638404,-0.2869903109639883
1731517652096102700,2.3491025390625,-9.432622626096009,-2.6669927653759715,-0.2883756643751636
1731517652106149600,2.359149658203125,-9.432652436712385,-2.6666929056465625,-0.29017363544153046
1731517652116198000,2.369197998046875,-9.431881452339887,-2.6693150708436963,-0.2911242141646333
1731517652126244900,2.379244873046875,-9.430462817713618,-2.674393981543183,-0.290461475939583
1731517652136292600,2.389292724609375,-9.428897468093037,-2.6802795324504376,-0.287021400221996
1731517652146339600,2.399339599609375,-9.42779213719964,-2.6849311576485633,-0.2797672095763497
1731517652156387800,2.409387939453125,-9.427295878115295,-2.687759074550867,-0.269119613632746
1731517652166434800,2.419434814453125,-9.427189495131373,-2.6894363601133224,-0.2557591237349435
1731517652176482600,2.429482666015625,-9.427252623495459,-2.6901883475244044,-0.24530774448318404
1731517652186529500,2.439529541015625,-9.427402845621108,-2.6901950695261356,-0.23940449352245777
1731517652196577800,2.449577880859375,-9.427577617666124,-2.6897625233277678,-0.23736277682809157
1731517652206624800,2.459624755859375,-9.427657697165012,-2.6895164396122095,-0.23697478215750306
1731517652216672800,2.4696728515625,-9.427401676577329,-2.6904040361016985,-0.23707018708968533
1731517652226719700,2.4797197265625,-9.426819492775202,-2.6924416794091464,-0.23710525840306654
1731517652236767700,2.489767822265625,-9.425864968529343,-2.6957220162540674,-0.2377689647424966
1731517652246814700,2.499814697265625,-9.424274484467507,-2.701265037333965,-0.2379003177708946
1731517652256862700,2.50986279296875,-9.422372450238466,-2.708242182870209,-0.23389296355936676
1731517652266910000,2.519909912109375,-9.420762676954268,-2.7145354377955195,-0.22563686586217954
1731517652276956700,2.529956787109375,-9.419925641608238,-2.7182380917057394,-0.21579812034973875
1731517652287004700,2.540004638671875,-9.419804061055183,-2.7193533594712616,-0.20686830637576056
1731517652297051600,2.5500517578125,-9.41967605076134,-2.7202722278818485,-0.20051888255011288
1731517652307100000,2.560099853515625,-9.418990406584738,-2.722872181247175,-0.19742049640966577
1731517652317147000,2.57014697265625,-9.417844159159063,-2.7268413771390914,-0.19730766541864722
1731517652327194600,2.580194580078125,-9.417159099504351,-2.7292265187099574,-0.19703589927256107
1731517652337241600,2.59024169921875,-9.417570018392802,-2.7279809025630355,-0.19461437121406197
1731517652347289900,2.600289794921875,-9.418688793289661,-2.7244895533159372,-0.1893087938855402
1731517652357336800,2.6103369140625,-9.419655007973313,-2.7215347951635716,-0.18366278735520317
1731517652367384600,2.620384521484375,-9.420039623376727,-2.7203911780864,-0.18085211384864522
1731517652377431600,2.630431640625,-9.419606492656468,-2.7218299787178633,-0.18177059866674244
1731517652387479800,2.640479736328125,-9.418191365161537,-2.7265374257564545,-0.18453933272771536
1731517652397526800,2.65052685546875,-9.416165412291884,-2.733440921534598,-0.18579371670298278
1731517652407574500,2.660574462890625,-9.414106141674518,-2.740600145639479,-0.18465344236036763
1731517652417621500,2.67062158203125,-9.412343223655224,-2.746831441244483,-0.18191037246361375
1731517652427669800,2.680669677734375,-9.411263611724973,-2.750818465054035,-0.17748285661125554
1731517652437716700,2.690716796875,-9.411272379553317,-2.7512144786342976,-0.17074940190408378
1731517652447764700,2.7007646484375,-9.412515657612682,-2.7474808450639245,-0.16211310925027356
1731517652457811700,2.710811767578125,-9.41462461259067,-2.74070097566545,-0.1542385764828883
1731517652467859700,2.720859619140625,-9.416748765137791,-2.7336931427299973,-0.14882511833310128
1731517652477906700,2.73090673828125,-9.418306515973805,-2.7284993734791874,-0.14553220513439735
1731517652487953700,2.74095361328125,-9.419000343456863,-2.726188173927367,-0.14394057029508986
1731517652498002000,2.751001953125,-9.418739062172174,-2.7271476666092873,-0.14286218220754526
1731517652508049000,2.761048828125,-9.417918393439054,-2.730040465441346,-0.14168411487150004
1731517652518096600,2.7710966796875,-9.417298215714096,-2.732200566084683,-0.14128878627782687
1731517652528143600,2.7811435546875,-9.417194170817732,-2.7325422191292046,-0.1416058072045911
1731517652538192000,2.79119189453125,-9.417116429406404,-2.7328689668655395,-0.14046015343395993
1731517652548238800,2.80123876953125,-9.416946918058395,-2.733626507234573,-0.13703531181812287
1731517652558286600,2.81128662109375,-9.41675285679102,-2.7344562360569835,-0.13379479552693666
1731517652568333600,2.82133349609375,-9.416736490178108,-2.7346120111405847,-0.1317378812634386
1731517652578381800,2.8313818359375,-9.41727191222906,-2.7329212815746664,-0.1284947985558305
1731517652588428800,2.8414287109375,-9.418322882586716,-2.729566710449755,-0.12264792655799538
1731517652598476500,2.8514765625,-9.41943581226468,-2.726040289889276,-0.11538776282928884
1731517652608523800,2.861523681640625,-9.42016178845167,-2.7238009865298864,-0.10882106125745922
1731517652618571800,2.87157177734375,-9.420497888538241,-2.72285201524198,-0.1033458173173014
1731517652628618800,2.88161865234375,-9.420787226873635,-2.722011472764611,-0.0990260452888906
1731517652638666800,2.891666748046875,-9.421160151839256,-2.720876038993895,-0.09463236777405254
1731517652648713700,2.901713623046875,-9.421348952409625,-2.7203949774786826,-0.08954253382175228
1731517652658761700,2.91176171875,-9.421165997058152,-2.7212030789911745,-0.08407171946153975
1731517652668808700,2.92180859375,-9.42066856893003,-2.723078517474234,-0.0789649709070567
1731517652678855700,2.931855712890625,-9.420081708952784,-2.7252111455887555,-0.07532701169692445
1731517652688904000,2.941904052734375,-9.419758468347787,-2.7263620691895483,-0.07406714782894123
1731517652698950700,2.95195068359375,-9.419792955139279,-2.7262486719429493,-0.07386898577518294
1731517652708998700,2.96199853515625,-9.42035117354393,-2.724389307811856,-0.07123636768269352
1731517652719045600,2.972045654296875,-9.421305697789787,-2.721203955774009,-0.06661173095619305
1731517652729094000,2.982093994140625,-9.42219884723723,-2.71822786257267,-0.06156927980957552
1731517652739140900,2.992140869140625,-9.422990874397755,-2.7155761790201067,-0.05717260662005283
1731517652749188600,3.002188720703125,-9.423300670999287,-2.714585414417088,-0.053093963570869526
1731517652759235600,3.012235595703125,-9.42283188444376,-2.7162890034645795,-0.048970440200343725
1731517652769283800,3.022283935546875,-9.421518463757634,-2.7209140329167245,-0.04479019080705475
1731517652779330800,3.032330810546875,-9.419813413405418,-2.7268822936713693,-0.04024647382965777
1731517652789378600,3.042378662109375,-9.418547338992356,-2.731328751686215,-0.03462030222766334
1731517652799425800,3.05242578125,-9.41811303922832,-2.732909006614983,-0.027160309644497463
1731517652809473800,3.062473876953125,-9.418111870184541,-2.732988793852925,-0.018167298807774204
1731517652819520800,3.072520751953125,-9.41813232845068,-2.7329659974992273,-0.007733286820168723
1731517652829568500,3.082568603515625,-9.418175583070516,-2.732828050333261,0.0019279929374926722
1731517652839615700,3.09261572265625,-9.418252739959955,-2.7325536173060536,0.007073495179097517
1731517652849662700,3.102662841796875,-9.41867242667675,-2.731104003019631,0.007765893894294276
1731517652859710700,3.112710693359375,-9.419329429280758,-2.7288345967829226,0.008712323881953489
1731517652869757200,3.122757080078125,-9.420401442426442,-2.7251138226941225,0.013094071213691494
1731517652879805200,3.13280517578125,-9.42182299966216,-2.7201100230574604,0.025207595540990585
1731517652889852200,3.14285205078125,-9.423327559006214,-2.714680106963217,0.04236232433931436
1731517652899900200,3.152900146484375,-9.424310724824666,-2.710973069138825,0.05806988425333984
1731517652909947100,3.162947021484375,-9.424777173292636,-2.7091014300480483,0.06876905512055381
1731517652919995100,3.1729951171875,-9.42484614687562,-2.7087413645640015,0.07338252199906856
1731517652930042000,3.1830419921875,-9.425717084491252,-2.7056255706310273,0.07634186956158373
1731517652940090000,3.193090087890625,-9.427505136951803,-2.699346051970124,0.07783816796736791
1731517652950137000,3.20313720703125,-9.430027348905801,-2.6903873772278426,0.08239556641024537
1731517652960185000,3.21318505859375,-9.433006656977534,-2.6796505868971345,0.09079524642974138
1731517652970232000,3.223232177734375,-9.435949140170216,-2.6689444839656353,0.09992292106337845
1731517652980280000,3.233280029296875,-9.438604038593173,-2.6593615398451687,0.10455466338410041
1731517652990327000,3.2433271484375,-9.441106961324811,-2.6505714996680614,0.10175322349676862
1731517653000375000,3.253375,-9.443955921015142,-2.640695125558972,0.09388531226641499
1731517653010422000,3.263422119140625,-9.447292371961474,-2.6290476501241327,0.08465053312964736
1731517653020470000,3.273469970703125,-9.450673831093312,-2.6170745959967374,0.07792170893182046
1731517653030517000,3.28351708984375,-9.453609300023317,-2.6065108241453765,0.07587771808197721
1731517653040564000,3.29356396484375,-9.456246662789583,-2.596875565315783,0.07762361190123483
1731517653050612200,3.3036123046875,-9.459043015509843,-2.586491533945501,0.0833938749989029
1731517653060659200,3.3136591796875,-9.461684469929336,-2.5765032238945365,0.09245582745256833
1731517653070707200,3.323707275390625,-9.463522206750511,-2.569387546670437,0.10188769093086011
1731517653080754000,3.33375390625,-9.464459779861569,-2.5657068123310802,0.10741635469184256
1731517653090802200,3.34380224609375,-9.464728075408935,-2.564717216771841,0.10737642454025335
1731517653100849200,3.35384912109375,-9.464655594694614,-2.5651380725324153,0.10364126573307439
1731517653110897200,3.363897216796875,-9.46466319347918,-2.565281572656333,0.0993340791916009
1731517653120944000,3.373944091796875,-9.465264081981777,-2.563202136033773,0.09569380472679621
1731517653130992000,3.3839921875,-9.466506775519251,-2.558705993658304,0.09302215609843842
1731517653141039000,3.3940390625,-9.468133499938249,-2.5527427013397217,0.09132561784624121
1731517653151087000,3.404087158203125,-9.46955155004263,-2.547450732411444,0.09203626859993673
1731517653161134000,3.414134033203125,-9.469999878332018,-2.5456182562872764,0.09652339655188844
1731517653171182000,3.42418212890625,-9.469415940964222,-2.5475293506056067,0.10314119812329299
1731517653181229000,3.43422900390625,-9.468134668982028,-2.55212106231004,0.1071986476873979
1731517653191277000,3.444277099609375,-9.466149048122762,-2.5595088344737884,0.10640349698802455
1731517653201324300,3.45432421875,-9.463047574976086,-2.5711089636355635,0.10254521412467583
1731517653211372000,3.4643720703125,-9.458850707808136,-2.5866183751955627,0.09965535616837441
1731517653221419000,3.4744189453125,-9.454291437068582,-2.603226103386283,0.09983716074237599
1731517653231466000,3.484466064453125,-9.450173480355739,-2.6180779278203845,0.10137065391996875
1731517653241514200,3.49451416015625,-9.44689022090137,-2.6298136660605667,0.1035757353493478
1731517653251561200,3.504561279296875,-9.444676636505127,-2.6377391983628273,0.10389958787569775
1731517653261609000,3.51460888671875,-9.443343926596642,-2.6425527361243963,0.10273925712574272
1731517653271656000,3.524656005859375,-9.442869879344105,-2.6443130237951875,0.10097854019668884
1731517653281704200,3.5347041015625,-9.442942944580317,-2.6441151631355284,0.09932559449104592
1731517653291751200,3.544751220703125,-9.44317909142375,-2.6432567927405235,0.09974620365644804
1731517653301799200,3.554799072265625,-9.44323520552516,-2.642933259874582,0.10292302532796747
1731517653311846100,3.56484619140625,-9.442934761273861,-2.6437778940051793,0.10863892788989468
1731517653321894100,3.57489404296875,-9.442437333145737,-2.645268132562935,0.11538260259698144
1731517653331941000,3.584941162109375,-9.441894896832109,-2.646977274568379,0.12047761504789814
1731517653341989000,3.594989013671875,-9.441457089936733,-2.6483874336272475,0.12375860947994514
1731517653352036000,3.6050361328125,-9.441134433853625,-2.6494185302406548,0.12629676792174577
1731517653362084000,3.615083984375,-9.441241401359438,-2.648931915767491,0.12849170241644606
1731517653372131000,3.625131103515625,-9.442109416365623,-2.645729028072953,0.13067657217485829
1731517653382179000,3.635178955078125,-9.443534480732678,-2.6405130469903346,0.1331439852016978
1731517653392226300,3.645226318359375,-9.445074695912004,-2.634817173436284,0.13671426317021249
1731517653402273300,3.655273193359375,-9.44620048507154,-2.630536719638109,0.14127346084453166
1731517653412321000,3.665321044921875,-9.446782084351778,-2.6282255200862883,0.1453365364318248
1731517653422368000,3.675367919921875,-9.446811310446261,-2.6280463641270995,0.1466569805137813
1731517653432416300,3.685416259765625,-9.446324403712152,-2.629904266953468,0.14472333643692545
1731517653442463200,3.695463134765625,-9.445553419339657,-2.6327795301288366,0.14273794390652328
1731517653452511000,3.705510986328125,-9.445167050370573,-2.634003811226785,0.14571484082546085
1731517653462558000,3.715557861328125,-9.445855032634734,-2.631068050035834,0.15392061484120786
1731517653472606200,3.725606201171875,-9.447814934530854,-2.62341022875905,0.16401159981535746
1731517653482653200,3.735653076171875,-9.450629991951585,-2.612625215372443,0.1736825510128401
1731517653492701000,3.745700927734375,-9.453723281791806,-2.600931270447373,0.18070994716528802
1731517653502748000,3.755747802734375,-9.456163076159358,-2.591841662801802,0.18364822910688816
1731517653512796200,3.765796142578125,-9.457047457778453,-2.588722946259379,0.1820754633648321
1731517653522843100,3.775843017578125,-9.456208084344864,-2.592112296436727,0.17738882165225223
1731517653532891100,3.78589111328125,-9.454158750599623,-2.5999738235920664,0.17145681952107697
1731517653542938000,3.795938232421875,-9.451787929815053,-2.6087682476833463,0.16856876992937175
1731517653552985000,3.805985107421875,-9.450125549560784,-2.6146517527639865,0.17061379282567649
1731517653563033000,3.816033203125,-9.449267471426724,-2.6174013437330723,0.1758845545691438
1731517653573080000,3.826080078125,-9.448926110643148,-2.6183073526620864,0.1806724099001847
1731517653583128300,3.83612841796875,-9.44875426120758,-2.6188532961070536,0.1817524967544712
1731517653593175300,3.84617529296875,-9.448480120441317,-2.6199980822280047,0.17948511807806788
1731517653603223000,3.85622314453125,-9.44836321606338,-2.6207071072801944,0.1752608331802301
1731517653613270000,3.86627001953125,-9.448546755936741,-2.620397018417716,0.16991841270634903
1731517653623318300,3.876318359375,-9.449000929445027,-2.6190663543358443,0.16510880220122634
1731517653633365200,3.886365234375,-9.449433475643396,-2.6175772848218677,0.16396151359593494
1731517653643413000,3.8964130859375,-9.449522907492518,-2.6170126366764306,0.16775398294776678
1731517653653460000,3.9064599609375,-9.449297866564988,-2.6175252623736855,0.17237672911128027
1731517653663508200,3.91650830078125,-9.448833171662688,-2.6190710305109617,0.17437615930018946
1731517653673555200,3.92655517578125,-9.448153372704983,-2.6216137007310985,0.1729827139141038
1731517653683603000,3.93660302734375,-9.447164361667632,-2.625342950387299,0.1704124067683704
1731517653693650000,3.94664990234375,-9.446304529967904,-2.628513689377904,0.16922500534839927
1731517653703698200,3.9566982421875,-9.446090594956278,-2.6293176992371676,0.16865208256496114
1731517653713745200,3.9667451171875,-9.446579255256056,-2.627621708974242,0.16770966888200492
1731517653723792100,3.976792236328125,-9.447035182330012,-2.6260934764936565,0.1659467325964011
1731517653733840000,3.98683984375,-9.446809556880593,-2.6270003622055054,0.16443603577250615
1731517653743887000,3.99688720703125,-9.445821714887023,-2.6304838204070924,0.16550021267160772
1731517653753935000,4.00693505859375,-9.444515892985462,-2.634959212255478,0.16879472417235372
1731517653763982000,4.016982177734375,-9.443261509010195,-2.6393144848555323,0.17093409255491568
1731517653774030300,4.0270302734375,-9.44188846709132,-2.644225637772679,0.17085463411053642
1731517653784077000,4.0370771484375,-9.440276355719567,-2.6500498138815165,0.16969689717646688
1731517653794125000,4.047125,-9.438668336001038,-2.6557413035213946,0.17017640605540946
1731517653804172000,4.057172119140625,-9.437555406323074,-2.659560569548607,0.17224745844211428
1731517653814220300,4.06722021484375,-9.437185403966904,-2.6608175838723778,0.1730894256915897
1731517653824267300,4.077267333984375,-9.437232750239968,-2.6606971723631023,0.17237744149733333
1731517653834315000,4.08731494140625,-9.437336210614442,-2.660401404286921,0.1712672882983461
1731517653844362000,4.097362060546875,-9.437430318638683,-2.660117618909478,0.17047931625843046
1731517653854410200,4.10741015625,-9.437570603892206,-2.659599147993326,0.1708259377390146
1731517653864457200,4.117457275390625,-9.437671141657233,-2.6591674785777926,0.1719798752808012
1731517653874504700,4.127504638671875,-9.437570603892206,-2.659477859701216,0.17269730283515528
1731517653884552700,4.137552734375,-9.43732335113287,-2.660315479569137,0.17329004456391556
1731517653894599700,4.147599609375,-9.43696854634583,-2.6614655263870954,0.1749732484105043
1731517653904648000,4.15764794921875,-9.43687560736537,-2.661637668083608,0.1773264604731463
1731517653914695000,4.16769482421875,-9.437249116852879,-2.660190391884744,0.17915479014515875
1731517653924742700,4.17774267578125,-9.437943528857828,-2.657691268545389,0.17968553602099419
1731517653934789600,4.18778955078125,-9.438446802204847,-2.6559318576574324,0.17925454245889558
1731517653944838000,4.197837890625,-9.438131744906306,-2.6571193138763305,0.17825086357537656
1731517653954884900,4.207884765625,-9.437014139053225,-2.6611235810816285,0.1776665608813986
1731517653964932600,4.2179326171875,-9.436160737094282,-2.6641584187328813,0.17752592856800184
1731517653974979600,4.2279794921875,-9.436383439934254,-2.6633491481766103,0.17781968735018744
1731517653985027800,4.23802783203125,-9.436989589133859,-2.66099937018007,0.1808258651625365
1731517653995074800,4.24807470703125,-9.437370697405933,-2.659272692517936,0.1862539363595657
1731517654005122600,4.25812255859375,-9.437623795384168,-2.6578587340667843,0.19346750273387878
1731517654015169500,4.26816943359375,-9.438225268408656,-2.6551035901397464,0.20178075571209192
1731517654025216800,4.278216796875,-9.439593049630522,-2.6495231596589086,0.21092483349125832
1731517654035264800,4.2882646484375,-9.44159036092758,-2.6418524789005517,0.21764736494561657
1731517654045311700,4.298311767578125,-9.443331067115068,-2.635301449821889,0.2215098125274293
1731517654055359700,4.30835986328125,-9.444052367126941,-2.6325670564219354,0.22326770731173454
1731517654065406700,4.31840673828125,-9.443485965415835,-2.634511760748923,0.22428961597168817
1731517654075454700,4.328454833984375,-9.441893143266439,-2.6403122637212273,0.22313933169171213
1731517654085501700,4.338501708984375,-9.440123210984467,-2.646786720432341,0.2213038781591691
1731517654095549700,4.3485498046875,-9.439243505540489,-2.6499694421216846,0.2207557062244974
1731517654105596700,4.3585966796875,-9.439182715263962,-2.65005244423002,0.22234195250263436
1731517654115644700,4.368644775390625,-9.43968949574232,-2.647836814007163,0.22717631385652348
1731517654125691600,4.378691650390625,-9.440649865207076,-2.6438562199383973,0.23353315380364656
1731517654135740000,4.388739990234375,-9.442098310449719,-2.6382924483314154,0.2378511996658519
1731517654145787000,4.398786865234375,-9.443840770202874,-2.6320786883831024,0.23752180331470443
1731517654155834600,4.408834716796875,-9.44530265944898,-2.6272809327125546,0.23246634655604137
1731517654165881600,4.418881591796875,-9.445835158890485,-2.6260113511681555,0.22504275416024028
1731517654175929900,4.428929931640625,-9.445307335624099,-2.628375742211938,0.21952822852246462
1731517654185976800,4.438976806640625,-9.444580190393328,-2.631064250643551,0.218597468744684
1731517654196023800,4.44902392578125,-9.444460947927832,-2.6311229950934645,0.22300940343542022
1731517654206071600,4.459071533203125,-9.444570838043093,-2.6300293546378612,0.23110503160757942
1731517654216118800,4.469118896484375,-9.444461532449722,-2.629740893085301,0.23874573735278098
1731517654226166800,4.479166748046875,-9.4440547052145,-2.630862882852554,0.242445048528444
1731517654236213800,4.4892138671875,-9.44351460698843,-2.63286603936851,0.24173395938333123
1731517654246261800,4.49926171875,-9.443146358197927,-2.634546832062304,0.2377801254573278
1731517654256308700,4.509308837890625,-9.44310427262187,-2.635105927249789,0.23320205868575722
1731517654266356700,4.519356689453125,-9.443799269148707,-2.6328750994578,0.2302327422850765
1731517654276403700,4.52940380859375,-9.44549146001935,-2.6267832123234864,0.23040495704682543
1731517654286451700,4.53945166015625,-9.44767406475544,-2.618608381435275,0.2339334964991547
1731517654296498700,4.549498779296875,-9.449210188281535,-2.612563256052136,0.23942842238731682
1731517654306546700,4.559546630859375,-9.449248766726255,-2.611886379703879,0.24522572875553741
1731517654316593700,4.56959375,-9.447885661679505,-2.6163264079779385,0.2503442042804323
1731517654326642000,4.579641845703125,-9.445904716995358,-2.623194540181756,0.25321756775965915
1731517654336688600,4.589688720703125,-9.444046521908044,-2.629878840251267,0.25318726395294067
1731517654346735600,4.599735595703125,-9.442718488174677,-2.634774503338337,0.2518175099696964
1731517654356783600,4.60978369140625,-9.44228360388875,-2.6364912441283463,0.2501575043356046
1731517654366830800,4.619830810546875,-9.442716150087117,-2.6350767011553047,0.24873485112134366
1731517654376878800,4.62987890625,-9.443731464609503,-2.631554372248053,0.2474632968155667
1731517654386925800,4.63992578125,-9.444863683509826,-2.627605050100386,0.24623295130301265
1731517654396973800,4.649973876953125,-9.445632914316654,-2.624917710712552,0.24538227102411908
1731517654407020800,4.660020751953125,-9.445634083360433,-2.6249375844568013,0.24511205751430243
1731517654417068800,4.67006884765625,-9.444737426781654,-2.6280931258782743,0.2458551674991846
1731517654427115800,4.68011572265625,-9.443219423434138,-2.633390355503559,0.24749212105125187
1731517654437163800,4.690163818359375,-9.441696743911503,-2.638772633063793,0.2482503190074116
1731517654447210800,4.700210693359375,-9.440494382384419,-2.6430723760843273,0.24824094839086755
1731517654457258800,4.7102587890625,-9.439803477510809,-2.645400819031894,0.24969058094359933
1731517654467305700,4.7203056640625,-9.439851992827654,-2.6449676883116364,0.25244216294037175
1731517654477353700,4.730353759765625,-9.440612455806136,-2.6420035778090356,0.25502616981789467
1731517654487400700,4.740400634765625,-9.44159211449325,-2.638373112352192,0.2563407230151817
1731517654497447700,4.75044775390625,-9.442072006964683,-2.636682090525329,0.25605679150726646
1731517654507495700,4.76049560546875,-9.441863332650065,-2.63758430006206,0.2544498312346637
1731517654517543000,4.77054296875,-9.44123730970621,-2.639988438594341,0.2527442511594854
1731517654527590700,4.780590576171875,-9.440228424924612,-2.643634101620316,0.25233104898240416
1731517654537637600,4.7906376953125,-9.439152320125698,-2.6474235570311544,0.25285072547495363
1731517654547685600,4.800685546875,-9.438294241991638,-2.650380945532024,0.2539146831783466
1731517654557732900,4.81073291015625,-9.437709135580063,-2.652306945158541,0.25553665835699063
1731517654567780600,4.820780517578125,-9.437008878356218,-2.654626328016817,0.2573097141778096
1731517654577827600,4.83082763671875,-9.435909392681717,-2.658461376135051,0.258040056012664
1731517654587875800,4.840875732421875,-9.434608831477165,-2.66312586081475,0.25749097076253963
1731517654597922800,4.8509228515625,-9.433414068734645,-2.667464182280004,0.25636021316694096
1731517654607970800,4.860970703125,-9.43264074627459,-2.670330677627027,0.2549683752160519
1731517654618017800,4.871017822265625,-9.432236841648816,-2.671858033324778,0.2539074131873436
1731517654628065800,4.881065673828125,-9.432111169442534,-2.6723230204880237,0.2536913775501773
1731517654638112800,4.89111279296875,-9.432224566689133,-2.6719550639584657,0.25334369662366807
1731517654648159700,4.90115966796875,-9.432647760537266,-2.6705077877596017,0.25284214030969887
1731517654658207700,4.911207763671875,-9.433305347663163,-2.668139012801647,0.2533165346221067
1731517654668254700,4.921254638671875,-9.434182715019583,-2.664875042569637,0.2549915916948579
1731517654678302700,4.931302734375,-9.435172310578823,-2.6611986921444535,0.25677717820368706
1731517654688349700,4.941349609375,-9.43593920329809,-2.658377204982936,0.25781265873126685
1731517654698397700,4.951397705078125,-9.436010514968633,-2.6582328280761836,0.2566876367567107
1731517654708445000,4.96144482421875,-9.435209135457873,-2.6613813552349805,0.2534993255767971
1731517654718492700,4.97149267578125,-9.433989822795986,-2.6659093540534378,0.2512862343708984
1731517654728539600,4.98153955078125,-9.432951127398013,-2.66949510358572,0.2522126832997426
1731517654738587600,4.991587646484375,-9.432598660698533,-2.670374809029698,0.25604888219544664
1731517654748635000,5.001634765625,-9.433017762893439,-2.6684099386975166,0.26106486546024676
1731517654758682600,5.0116826171875,-9.43379693057239,-2.6652882995456455,0.2647654918101616
1731517654768729600,5.0217294921875,-9.434296112266182,-2.663306770339608,0.26690392861096185
1731517654778776600,5.031776611328125,-9.434252273124455,-2.6633810046195983,0.26771961064171046
1731517654788824800,5.041824951171875,-9.43385362919569,-2.6647069925263525,0.26856234507616605
1731517654798871800,5.051871826171875,-9.433808036488294,-2.664744401927292,0.2697965265136212
1731517654808919600,5.06191943359375,-9.434659684881568,-2.661540345188975,0.27163185218200087
1731517654818966500,5.071966552734375,-9.436195808407664,-2.6558833423405885,0.27364341120012103
1731517654829014800,5.082014892578125,-9.437866371968388,-2.6498846864476797,0.27418248651288446
1731517654839061800,5.092061767578125,-9.439213694924115,-2.645225462464988,0.2727901919042691
1731517654849109800,5.10210986328125,-9.440117365765571,-2.6422555067434907,0.27027901280093936
1731517654859156700,5.11215673828125,-9.441116313675046,-2.639128899155557,0.2658976011126302
1731517654869204200,5.122204345703125,-9.442101233059168,-2.6359011692807077,0.2629309881256893
1731517654879251200,5.132251220703125,-9.442179558992386,-2.6356553778260943,0.2625848233028315
1731517654889299200,5.14229931640625,-9.441662257120013,-2.6373247723430393,0.26440898825637993
1731517654899346200,5.15234619140625,-9.441111052978039,-2.638979846073687,0.2675710142175667
1731517654909394200,5.162394287109375,-9.440596673715113,-2.6405995562300086,0.2697209405267611
1731517654919441200,5.172441162109375,-9.440275771197676,-2.6418168230652808,0.2690420183518901
1731517654929488100,5.182488037109375,-9.440261158150435,-2.64208891800493,0.2668636331331916
1731517654939536400,5.192536376953125,-9.440588490408658,-2.6409482235372064,0.26657802112484347
1731517654949583400,5.202583251953125,-9.441335509383677,-2.637925953106582,0.27003144951434804
1731517654959631000,5.212631103515625,-9.442390571394562,-2.6334306875139473,0.2769219944793731
1731517654969678000,5.222677978515625,-9.443911497351527,-2.6272894082799554,0.2833221803778782
1731517654979726300,5.232726318359375,-9.445170557501912,-2.6223370465695854,0.2872136165921576
1731517654989773300,5.242773193359375,-9.445385077035427,-2.6213062422171234,0.28954470815453676
1731517654999821300,5.2528212890625,-9.444459778884053,-2.6244714282497763,0.2910479340580292
1731517655009868000,5.262867919921875,-9.442752390444278,-2.6306425181001423,0.2907481108612381
1731517655019916300,5.272916259765625,-9.441185871779918,-2.636476923342049,0.28876163148544726
1731517655029963300,5.28296337890625,-9.440604857021569,-2.6388240709900854,0.28630145191699263
1731517655040011300,5.29301123046875,-9.441122158893942,-2.637130711075663,0.28484856796124947
1731517655050058200,5.303058349609375,-9.442872217431663,-2.6309379939153787,0.284100507806614
1731517655060105200,5.313105224609375,-9.445199199074507,-2.622489899043739,0.2848540113213472
1731517655070153200,5.3231533203125,-9.44743031912744,-2.614089442706108,0.28805947456546127
1731517655080200200,5.3332001953125,-9.449103805297613,-2.6075793301597234,0.2921503788745962
1731517655090248400,5.34324853515625,-9.44998351074159,-2.6039459420934317,0.29607778145140035
1731517655100295400,5.35329541015625,-9.450219073063135,-2.6028707140773535,0.2979963649564423
1731517655110343200,5.36334326171875,-9.450158867308497,-2.603205060598254,0.2969994994061999
1731517655120390100,5.37339013671875,-9.449959545344115,-2.6042227132081983,0.2943976828773506
1731517655130438400,5.3834384765625,-9.44974268772304,-2.6051515184909104,0.2931373258190229
1731517655140485400,5.3934853515625,-9.449732750850915,-2.6050539033353326,0.29433466411111875
1731517655150533000,5.403533203125,-9.450019166576862,-2.60364169844985,0.29761423377105967
1731517655160580000,5.413580078125,-9.450348836922645,-2.602047122734785,0.3010747129558585
1731517655170628400,5.42362841796875,-9.450234855154156,-2.6020886237889527,0.3042748972366564
1731517655180675300,5.43367529296875,-9.449449257734418,-2.6044419089168307,0.30851174935512243
1731517655190723000,5.44372314453125,-9.448477197831869,-2.607321556006372,0.3139144486488774
1731517655200770000,5.45377001953125,-9.44780207504928,-2.609104055508971,0.31936511527020484
1731517655210817300,5.4638173828125,-9.447833639231323,-2.6085332698836923,0.32306773264780636
1731517655220865300,5.473865234375,-9.448929617774485,-2.6045269568517804,0.3233473167741671
1731517655230912300,5.483912353515625,-9.451106377291678,-2.59693635559231,0.3207669083595276
1731517655240960000,5.4939599609375,-9.454079255622625,-2.5865122844725845,0.3173759142143652
1731517655251007200,5.50400732421875,-9.457494617024064,-2.574303375762701,0.31487379520032555
1731517655261055200,5.51405517578125,-9.460949141392112,-2.561813604284823,0.31294505562745034
1731517655271102200,5.524102294921875,-9.464224217540025,-2.549792034840584,0.31209212859254326
1731517655281150500,5.534150390625,-9.467025830957294,-2.5394267081707715,0.3116359092576429
1731517655291197200,5.544197265625,-9.469575515440106,-2.5301012459427117,0.31002748768031596
1731517655301245200,5.5542451171875,-9.471872686466574,-2.521819739809632,0.3073127488289028
1731517655311292200,5.564292236328125,-9.474092700603604,-2.513899760465324,0.3037406442294828
1731517655321340400,5.57434033203125,-9.476492747482657,-2.5054139639317987,0.2989509440012276
1731517655331387400,5.584387451171875,-9.479110236504674,-2.49618027164042,0.2931452716634609
1731517655341434400,5.594434326171875,-9.482134552761911,-2.4853990576460956,0.2868793796691112
1731517655351482000,5.604482177734375,-9.486031560200452,-2.4711525056287647,0.28106205342616886
1731517655361529300,5.614529296875,-9.49079249099195,-2.453286301809549,0.27681124584758654
1731517655371577300,5.624577392578125,-9.495768525838852,-2.434253246168047,0.2741787419195287
1731517655381624300,5.634624267578125,-9.500274605086446,-2.416985300502926,0.2708361352270469
1731517655391672000,5.644672119140625,-9.503480707651375,-2.4049206225693225,0.2657079968246631
1731517655401719300,5.65471923828125,-9.5047432749331,-2.400628624463826,0.2592760458147153
1731517655411767300,5.664767333984375,-9.504534016096592,-2.4020824765339492,0.25341095317360013
1731517655421814300,5.674814208984375,-9.503743742501735,-2.405562281473726,0.25001299956468864
1731517655431862000,5.684862060546875,-9.503909746718406,-2.4050346043378115,0.24878013330148532
1731517655441909200,5.6949091796875,-9.506108718067408,-2.396316752614081,0.24889000515043733
1731517655451957200,5.704957275390625,-9.51031902923882,-2.3794455511815844,0.2499101602447219
1731517655462004200,5.715004150390625,-9.516466445952654,-2.3548007931381463,0.2493207795168273
1731517655472051200,5.72505126953125,-9.523888120386005,-2.3248569057732817,0.24694707265542817
1731517655482099200,5.73509912109375,-9.531475214514137,-2.2938351600438356,0.24430517984451725
1731517655492146200,5.745146240234375,-9.537964576533437,-2.266759521591663,0.243751619348675
1731517655502194200,5.755194091796875,-9.542031095319986,-2.249257621040195,0.2467119669916108
1731517655512241200,5.7652412109375,-9.543395953932404,-2.242797192854434,0.2526555499627255
1731517655522289200,5.7752890625,-9.542952886340021,-2.243734181443602,0.26094341277135535
1731517655532336000,5.785336181640625,-9.542051553586125,-2.246370375166088,0.271034397745505
1731517655542384000,5.795384033203125,-9.54181774483025,-2.2459860520236195,0.28221953463191163
1731517655552431400,5.805431396484375,-9.542812016564607,-2.240312828692794,0.2934727317858487
1731517655562479400,5.815479248046875,-9.544901682320237,-2.230261244147271,0.3019420338422991
1731517655572526300,5.8255263671875,-9.547666470858454,-2.217660705771297,0.30729802618380636
1731517655582574000,5.835573974609375,-9.550914658999442,-2.203292280939966,0.3097030414989218
1731517655592621300,5.845621337890625,-9.554002688142656,-2.1899844710774716,0.3088490184854716
1731517655602668300,5.855668212890625,-9.556321486479044,-2.180355057466775,0.30520717311808837
1731517655612716300,5.86571630859375,-9.557714402142167,-2.1748894855372605,0.3005564429691061
1731517655622763300,5.87576318359375,-9.55839653918743,-2.1723875857189294,0.2969402069670148
1731517655632811300,5.885811279296875,-9.558719195270537,-2.1711517603136596,0.2955923542883247
1731517655642858200,5.895858154296875,-9.559140051031113,-2.1692788060486317,0.2957384299618192
1731517655652906200,5.90590625,-9.560065349182485,-2.16513615328595,0.2961740814327262
1731517655662953200,5.915953125,-9.561630698803066,-2.1583226738788186,0.29537060129642484
1731517655673001200,5.926001220703125,-9.563294248101114,-2.1512300852693618,0.2932480013855733
1731517655683048200,5.936048095703125,-9.564640986534952,-2.1455746898561716,0.2907500653563067
1731517655693096200,5.94609619140625,-9.565576221558452,-2.1412154717333616,0.2921094623423181
1731517655703143200,5.95614306640625,-9.565966682180761,-2.1384673420689997,0.2993696260710247
1731517655713191200,5.966191162109375,-9.565658054623007,-2.1383900390490886,0.3096016634836793
1731517655723238100,5.976238037109375,-9.563970539927482,-2.144591231776774,0.3187200588323176
1731517655733285000,5.98628515625,-9.560718260133266,-2.1583995385073123,0.3230524254808202
1731517655743333400,5.99633349609375,-9.557032849618793,-2.1750487677522004,0.3204302602836862
1731517655753380400,6.00638037109375,-9.554248187336325,-2.1887373936258254,0.31008305379245427
1731517655763428000,6.016427978515625,-9.553145194530487,-2.1956040645249186,0.2951718638539314
1731517655773475000,6.02647509765625,-9.553500583839416,-2.196078988560289,0.2797302750994451
1731517655783523300,6.0365234375,-9.555194528275727,-2.1903267086438833,0.26667497869329526
1731517655793570300,6.0465703125,-9.557962823945283,-2.179458108627051,0.25630840991446746
1731517655803618300,6.056618408203125,-9.561242576268315,-2.1662581430532035,0.2456591152041219
1731517655813665000,6.0666650390625,-9.564641571056843,-2.1525505202181634,0.23353879809314385
1731517655823713300,6.07671337890625,-9.567843581968546,-2.1396245492801067,0.22083045196114107
1731517655833760300,6.08676025390625,-9.570568038496374,-2.1283719183817507,0.21129054326480254
1731517655843807200,6.09680712890625,-9.5725332010895,-2.120004195269942,0.2063325920638628
1731517655853855200,6.106855224609375,-9.573399462530016,-2.1164099701702592,0.2030247644238174
1731517655863902200,6.116902099609375,-9.57301893877983,-2.1185192174091934,0.19892079970370977
1731517655873950200,6.1269501953125,-9.571558218577504,-2.12562203515172,0.1933667640394531
1731517655883997400,6.13699755859375,-9.569733341237901,-2.1344166053734717,0.18669048287961632
1731517655894045400,6.14704541015625,-9.568309445914625,-2.1414484037064017,0.17898635650938377
1731517655904092400,6.157092529296875,-9.56759399112165,-2.145432066515088,0.16924792956626042
1731517655914140400,6.167140380859375,-9.566999532359837,-2.1489991113469005,0.15717810053350403
1731517655924187400,6.1771875,-9.565707738983631,-2.155558469862491,0.14554152095201425
1731517655934235400,6.1872353515625,-9.563107785618305,-2.167625778144598,0.13692966861971653
1731517655944282400,6.197282470703125,-9.55922071505189,-2.1850269948005674,0.13167947474024258
1731517655954330400,6.207330322265625,-9.554431142687797,-2.2060306198626756,0.1290511903295759
1731517655964377300,6.21737744140625,-9.549096211400627,-2.2291547442100943,0.12654370102067478
1731517655974424300,6.22742431640625,-9.543588261634111,-2.252891301367432,0.12161911323321982
1731517655984472300,6.237472412109375,-9.53851694971919,-2.2746689795419575,0.11382391104605048
1731517655994519600,6.24751953125,-9.534347555080055,-2.2925652862384913,0.10368055656384675
1731517656004567300,6.2575673828125,-9.531230299842358,-2.3060268253579737,0.09096775345243513
1731517656014614300,6.2676142578125,-9.528478955307602,-2.3179062098525463,0.07607322695434558
1731517656024662300,6.277662353515625,-9.525656883624196,-2.329930701906234,0.0605932561179623
1731517656034709500,6.28770947265625,-9.523014844682812,-2.3410417323768136,0.045814341656444595
1731517656044757200,6.29775732421875,-9.520528873085976,-2.3513858701281247,0.030057455858110912
1731517656054804200,6.30780419921875,-9.518007245653868,-2.3617178790502247,0.014399573454842902
1731517656064852200,6.317852294921875,-9.516048512801527,-2.3696413655258715,-0.0008243541036768874
1731517656074899500,6.3278994140625,-9.515049564892053,-2.3736041316770016,-0.014898371556145137
1731517656084947500,6.337947509765625,-9.514926815295219,-2.3739932771250603,-0.026547111932886763
1731517656094994400,6.347994384765625,-9.515220829805731,-2.3726819022655485,-0.036627812975039704
1731517656105041200,6.358041259765625,-9.515660390266776,-2.3707189316295088,-0.047758959218463855
1731517656115089400,6.36808935546875,-9.516423775854706,-2.367386133944988,-0.05952984183726366
1731517656125136400,6.378136474609375,-9.517921905457973,-2.3609550779841837,-0.07371185441813431
1731517656135184400,6.388184326171875,-9.52061362875998,-2.3494459881067273,-0.09166068588634953
1731517656145231400,6.3982314453125,-9.525100418785215,-2.3302090804561972,-0.11388724033953622
1731517656155279400,6.408279296875,-9.531735326755046,-2.301462001660466,-0.14028061388228089
1731517656165326300,6.418326416015625,-9.54015711814165,-2.2641448090486227,-0.17157405269257722
1731517656175374300,6.428374267578125,-9.549245849004388,-2.2225398561149836,-0.2064110823938623
1731517656185421600,6.438421630859375,-9.557767593634129,-2.182015684155375,-0.24138898187056182
1731517656195469300,6.44846923828125,-9.565566284686327,-2.1440717379473146,-0.2706989004471339
1731517656205516300,6.458516357421875,-9.571873275876044,-2.1128499396011233,-0.29237909133024514
1731517656215563300,6.468563232421875,-9.5761151512295,-2.0915885403856636,-0.30604464685553684
1731517656225611500,6.478611572265625,-9.578502338626981,-2.0792745638661083,-0.3151036584334448
1731517656235658500,6.488658447265625,-9.579831541404127,-2.0722206998318433,-0.3211115205461159
1731517656245706200,6.498706298828125,-9.58046048695743,-2.068954391512275,-0.3234027002232149
1731517656255753200,6.508753173828125,-9.579718144157528,-2.0725791578806936,-0.32217644636388865
1731517656265801500,6.518801513671875,-9.576422609743476,-2.088451265273243,-0.3176265279745683
1731517656275848400,6.528848388671875,-9.569814005258678,-2.119757088641077,-0.30930516475513575
1731517656285896200,6.538896240234375,-9.560163548859954,-2.1645234282150865,-0.2974827894111164
1731517656295943200,6.548943115234375,-9.548764787489175,-2.216050494095683,-0.283886664126534
1731517656305991400,6.558991455078125,-9.536694410467147,-2.269069990491122,-0.2704923450243659
1731517656316038400,6.569038330078125,-9.524588962131737,-2.3207294505797327,-0.2584703371887095
1731517656326085400,6.57908544921875,-9.51257353016734,-2.3703036288268864,-0.25098818300608544
1731517656336133000,6.589133056640625,-9.500829316359757,-2.4172911515817046,-0.24765803393637761
1731517656346180400,6.599180419921875,-9.48995311755836,-2.4597256872072815,-0.2468353376429528
1731517656356228400,6.609228271484375,-9.481197564172744,-2.4933272202968597,-0.2461756498915143
1731517656366275300,6.619275390625,-9.475379817804694,-2.5155823067247867,-0.24374036730229853
1731517656376323600,6.629323486328125,-9.472746546691656,-2.525840373627841,-0.23996188994320108
1731517656386370300,6.639370361328125,-9.47337081606984,-2.5241230483159423,-0.23331644231304524
1731517656396418300,6.649418212890625,-9.477096558594702,-2.5111735503718258,-0.2214331853609532
1731517656406465300,6.65946533203125,-9.482731349611282,-2.4912530443713066,-0.20457972051454706
1731517656416513500,6.669513427734375,-9.488432776123284,-2.4710218649864197,-0.18459506323663516
1731517656426560500,6.679560546875,-9.49273193462193,-2.4559584436282513,-0.16337154834615067
1731517656436608300,6.689608154296875,-9.494714048349858,-2.449622664735466,-0.14192428943607954
1731517656446655200,6.6996552734375,-9.494030742260813,-2.4533695961788293,-0.12143170090233907
1731517656456702500,6.709702392578125,-9.491601469287275,-2.4636390612587333,-0.1018408287149854
1731517656466750500,6.71975048828125,-9.489269811469317,-2.4733514769777654,-0.08169343688972294
1731517656476797400,6.72979736328125,-9.488637943306564,-2.4763743319302796,-0.060861126973642966
1731517656486845200,6.73984521484375,-9.490005724528432,-2.4715514418184754,-0.04007082500180695
1731517656496892400,6.749892333984375,-9.492706800180674,-2.461404726335406,-0.01966201032795943
1731517656506940400,6.7599404296875,-9.495918163442612,-2.449066492157429,-0.0008404673429027752
1731517656516987400,6.7699873046875,-9.499064060252904,-2.436794308952987,0.014195710029371547
1731517656527035400,6.780035400390625,-9.501866258192061,-2.425752982717752,0.025451797826716208
1731517656537082400,6.790082275390625,-9.50453810774982,-2.4151333890259266,0.03560035364042269
1731517656547130400,6.80013037109375,-9.507194759738445,-2.4044218792669474,0.04889080365945119
1731517656557177300,6.81017724609375,-9.5098894056499,-2.393262187349051,0.06842038781335577
1731517656567225300,6.820225341796875,-9.513046992897987,-2.3798306049764153,0.09342385050081647
1731517656577272300,6.830272216796875,-9.516785010382533,-2.3636359876312314,0.12003504064586012
1731517656587319300,6.8403193359375,-9.520691954693199,-2.3464329238958657,0.14512166070528326
1731517656597367300,6.8503671875,-9.524282672661542,-2.330298804566264,0.1677167744762264
1731517656607414300,6.860414306640625,-9.527080778947472,-2.3173395158804952,0.18721410489492119
1731517656617462300,6.870462158203125,-9.529019638055562,-2.3080931102380156,0.20218265104386954
1731517656627509200,6.88050927734375,-9.530729949104785,-2.300093343655765,0.21246303937658667
1731517656637557200,6.89055712890625,-9.532752979364991,-2.2909824009612203,0.22000890644518659
1731517656647604500,6.9006044921875,-9.535050734913348,-2.280699345747381,0.22715538066634908
1731517656657652500,6.910652587890625,-9.536833526676892,-2.272322562546283,0.23610178044894709
1731517656667699500,6.920699462890625,-9.537207036164402,-2.269949988196045,0.24371691336147486
1731517656677747200,6.930747314453125,-9.535493802505732,-2.2766676060132682,0.24805401098402216
1731517656687794400,6.94079443359375,-9.532245614364742,-2.290147703702748,0.2487928831852041
1731517656697841400,6.95084130859375,-9.528157468268274,-2.307230648189783,0.24755455529559403
1731517656707889400,6.960889404296875,-9.523239301088452,-2.327660126625746,0.24554073125515133
1731517656717936400,6.970936279296875,-9.51788858771026,-2.349617253020406,0.24388881759596986
1731517656727984400,6.980984375,-9.51261269313395,-2.3706816683590413,0.2458641179906204
1731517656738031400,6.99103125,-9.507900277659296,-2.388543196003139,0.25510562826227395
1731517656748079400,7.001079345703125,-9.503684121268988,-2.4031745095543564,0.27409899121420456
1731517656758126300,7.011126220703125,-9.50056394342184,-2.4122031807929276,0.30157575781317425
1731517656768174300,7.02117431640625,-9.498730882775783,-2.414901772227138,0.3357832391729578
1731517656778221300,7.03122119140625,-9.497757069307566,-2.4127979318156836,0.37603243011608717
1731517656788269300,7.041269287109375,-9.496952767187356,-2.4088139767460524,0.4193914601754397
1731517656798316300,7.05131640625,-9.495832823246717,-2.405392185603827,0.46220191644132136
1731517656808363500,7.061363525390625,-9.494845565775035,-2.401925094015151,0.499044769539684
1731517656818411300,7.071411376953125,-9.49483738246858,-2.3964120296820997,0.5250287768302485
1731517656828458200,7.081458251953125,-9.496184120902418,-2.3879285712361336,0.5391412176065147
1731517656838506500,7.091506591796875,-9.497976265016197,-2.379303658492863,0.5456591116005555
1731517656848553500,7.101553466796875,-9.498138762101531,-2.3774589074090122,0.5508478393500671
1731517656858601200,7.111601318359375,-9.494972407025099,-2.3883792376130817,0.5581500886548311
1731517656868648200,7.121648193359375,-9.488352696624398,-2.4130494223587213,0.5645693811126054
1731517656878696200,7.1316962890625,-9.479456857985257,-2.4478986174218353,0.5639768220469356
1731517656888743200,7.1417431640625,-9.470018583032488,-2.4870260743260384,0.5512093661388382
1731517656898791400,7.15179150390625,-9.461017530453205,-2.526749305166304,0.5244672704899683
1731517656908838400,7.16183837890625,-9.452554238012432,-2.5656577124923468,0.48683315741606054
1731517656918885000,7.171885009765625,-9.444604155790806,-2.602634274972975,0.44286721097212284
1731517656928933400,7.181933349609375,-9.437641331040858,-2.6348773791909217,0.3984071974009275
1731517656938980400,7.19198046875,-9.432868709811567,-2.657654151405394,0.35811690726242956
1731517656949028400,7.2020283203125,-9.430693703860044,-2.669704070161283,0.32416663380041716
1731517656959075300,7.212075439453125,-9.430126717627047,-2.675037540143728,0.29541444043815135
1731517656969123300,7.222123291015625,-9.429065810397267,-2.681587400178611,0.2686843822869472
1731517656979170300,7.23217041015625,-9.425807100862263,-2.695451967141032,0.24307072441242633
1731517656989218300,7.24221826171875,-9.420136654010415,-2.7172143016159533,0.21945092550255357
1731517656999265300,7.252265380859375,-9.413155124559998,-2.742810807426274,0.19971507362024857
1731517657009313300,7.262313232421875,-9.406254259130359,-2.7674723704740405,0.1840237844210118
1731517657019360300,7.2723603515625,-9.400087553194165,-2.7891291987478732,0.17172904232488945
1731517657029407200,7.2824072265625,-9.394950190305709,-2.806966176472604,0.16198113516736776
1731517657039455200,7.292455322265625,-9.391587435874342,-2.818589686509967,0.15497695549372584
1731517657049502500,7.30250244140625,-9.389182128298282,-2.826862132553756,0.1499898969293106
1731517657059550200,7.31255029296875,-9.3872824321568,-2.8333140851721166,0.14709939051903784
1731517657069597200,7.32259716796875,-9.385951475813984,-2.837864295822382,0.14431559588625095
1731517657079645200,7.332645263671875,-9.385114440467953,-2.840942972615361,0.13804121005819178
1731517657089692400,7.3426923828125,-9.384618765905499,-2.843173508146405,0.12519406737685204
1731517657099740200,7.352740234375,-9.384220121976732,-2.845331562963128,0.10432943979348056
1731517657109787100,7.362787109375,-9.383447384038567,-2.848705131049454,0.07864048819304444
1731517657119835400,7.37283544921875,-9.381497419014572,-2.8557375139042733,0.051501200786978
1731517657129882400,7.38288232421875,-9.37803529586196,-2.8674364272654054,0.025372823439526834
1731517657139929300,7.392929443359375,-9.373325802996755,-2.8829046300321814,0.0029400243762371246
1731517657149977000,7.40297705078125,-9.367703286939859,-2.9010873524546623,-0.014367996714712353
1731517657160024000,7.413024169921875,-9.361704923307895,-2.920316076798737,-0.02489447903778637
1731517657170072300,7.423072265625,-9.356381682458519,-2.9372993603035806,-0.02793216166667407
1731517657180119300,7.433119384765625,-9.353036463683843,-2.9479727300092575,-0.023523192967870272
1731517657190167300,7.443167236328125,-9.352952877053617,-2.948298893223703,-0.013612467922962968
1731517657200214300,7.45321435546875,-9.356476375004648,-2.937128679911792,-0.0017741733478986133
1731517657210262300,7.46326220703125,-9.362571184748411,-2.9176363361954687,0.006871044538466958
1731517657220309200,7.473309326171875,-9.370157109832762,-2.893176725460589,0.008109557374456199
1731517657230357200,7.483357177734375,-9.378521033552289,-2.8659610940158364,-0.000924736034253874
1731517657240404500,7.493404541015625,-9.38555107831955,-2.8427959070056676,-0.018043020549201174
1731517657250451200,7.503451171875,-9.389154655769467,-2.8306562641397117,-0.03933224962814711
1731517657260499200,7.513499267578125,-9.387629053637385,-2.8353528975233435,-0.0598349074647529
1731517657270546200,7.523546142578125,-9.381090591779351,-2.856593546211719,-0.07345275139079895
1731517657280594400,7.533594482421875,-9.37206674284637,-2.885997919872403,-0.0759097891540965
1731517657290641400,7.543641357421875,-9.363599358752369,-2.9135373764440415,-0.0685283736658981
1731517657300689200,7.553689208984375,-9.357075509941577,-2.9347590281710025,-0.05208889644786249
1731517657310736100,7.563736083984375,-9.352526176074146,-2.9495214207559823,-0.031099023633182513
1731517657320784400,7.573784423828125,-9.349787691020966,-2.9583345495477316,-0.010489889197819865
1731517657330831400,7.583831298828125,-9.34914413242042,-2.9603783303350206,0.007045024853150244
1731517657340879000,7.593879150390625,-9.351672774115205,-2.952334140089154,0.018126889165572355
1731517657350926000,7.603926025390625,-9.35940307610631,-2.927716123922169,0.020825507999246474
1731517657360973300,7.613973388671875,-9.373117128682136,-2.8835350368902084,0.016978714644291903
1731517657371021300,7.624021240234375,-9.38998935302794,-2.828129960532486,0.012959562680404633
1731517657381068300,7.634068359375,-9.404653253674507,-2.7789462429076432,0.018328987608931493
1731517657391116300,7.6441162109375,-9.412169620653986,-2.7531644436582923,0.03911737390160561
1731517657401163300,7.654163330078125,-9.409518229362368,-2.761540057815611,0.07241110598391387
1731517657411211300,7.664211181640625,-9.397826622524857,-2.7999475298821923,0.107366770795919
1731517657421258200,7.67425830078125,-9.381344274279474,-2.853735526432097,0.13021156674530357
1731517657431306200,7.68430615234375,-9.364951942405105,-2.907001837195456,0.13190216844705863
1731517657441353200,7.694353271484375,-9.353296575924753,-2.94507759308964,0.11287297612992114
1731517657451401200,7.704401123046875,-9.350172306424378,-2.9560142899066206,0.08148670793701894
1731517657461448200,7.7144482421875,-9.356397464549541,-2.936979042308032,0.048628298532054755
1731517657471495400,7.724495361328125,-9.368228187596797,-2.8993510301813483,0.021170627075911032
1731517657481543400,7.73454345703125,-9.380319022884965,-2.8600682365849615,0.0019176881704872357
1731517657491590100,7.744590087890625,-9.388227604052425,-2.8339833627358075,-0.010252849588531534
1731517657501638100,7.75463818359375,-9.389351639646291,-2.830235700640082,-0.015114930066408122
1731517657511685400,7.764685302734375,-9.383753673508762,-2.8487475088864564,-0.0136177902687632
1731517657521733400,7.7747333984375,-9.374691830652951,-2.8784534958422183,-0.006692602106975391
1731517657531780400,7.7847802734375,-9.36648748140931,-2.9050404739946125,0.006017812684527598
1731517657541828000,7.794828125,-9.362064404270052,-2.9191610615447163,0.025173807435820345
1731517657551875300,7.804875244140625,-9.362084862536191,-2.9187723544880746,0.05019952533757314
1731517657561923300,7.81492333984375,-9.365097488355635,-2.9085096114099023,0.07686018064753151
1731517657571970300,7.82497021484375,-9.368673593276739,-2.8962197464182973,0.10124561190134845
1731517657582017300,7.835017333984375,-9.370579719159007,-2.889300176288187,0.1206632646799553
1731517657592065300,7.845065185546875,-9.369558559417724,-2.8919463068827986,0.13566701913960277
1731517657602112300,7.8551123046875,-9.36525764735341,-2.905222844824195,0.14836710889991372
1731517657612160300,7.86516015625,-9.358125311255455,-2.927357812003791,0.16264962727976962
1731517657622207200,7.875207275390625,-9.35024595618248,-2.9512744019031523,0.18239508724063633
1731517657632255200,7.885255126953125,-9.343709247890114,-2.970105359101295,0.20966475042756647
1731517657642302200,7.89530224609375,-9.339425286960601,-2.9809853572949767,0.2434102768314071
1731517657652350200,7.90535009765625,-9.337209948998689,-2.9848122221067546,0.27890938717061653
1731517657662397400,7.9153974609375,-9.335898281878233,-2.9858737138584255,0.30974527320545164
1731517657672445200,7.925445068359375,-9.33435397504568,-2.988321983793378,0.33189415931254623
1731517657682492200,7.9354921875,-9.332488765695691,-2.9926527064740656,0.3450565693549812
1731517657692539100,7.9455390625,-9.331046165671944,-2.9964328095346686,0.35121615143064405
1731517657702587400,7.95558740234375,-9.331078314375876,-2.9958874506115913,0.35498777892384675
1731517657712634400,7.96563427734375,-9.333349766439198,-2.9882053716763854,0.35998745037466284
1731517657722682000,7.97568212890625,-9.337122270715236,-2.975504880057275,0.3672958006266504
1731517657732729000,7.98572900390625,-9.340972516402601,-2.96162979170084,0.3812666044425219
1731517657742777300,7.99577734375,-9.344043009889125,-2.94930164052546,0.4010770376646891
1731517657752824300,8.00582421875,-9.345574457240104,-2.941146098859608,0.4245971025271341
1731517657762872300,8.015872314453125,-9.345180489486456,-2.938425149463117,0.4512670462552458
1731517657772919300,8.025919189453125,-9.343408219116926,-2.939619035422802,0.479321393546462
1731517657782967300,8.03596728515625,-9.340950304570793,-2.942380316829681,0.5093428761921823
1731517657793014300,8.04601416015625,-9.338144599500298,-2.9453263071537017,0.5426706703742966
1731517657803061200,8.056061279296875,-9.335423065581917,-2.947316896449029,0.5775647274924441
1731517657813109200,8.066109130859376,-9.333231693017483,-2.9472593210428952,0.6122397350324318
1731517657823156500,8.076156494140625,-9.332083107504248,-2.943710396389663,0.6458962497122586
1731517657833204200,8.086204345703125,-9.332351987573503,-2.9355507630705833,0.6783331229366362
1731517657843251200,8.096251220703126,-9.334355144089459,-2.922180993887782,0.707857104388997
1731517657853299500,8.106299560546875,-9.338687620335817,-2.901839924387634,0.7339067607942968
1731517657863346400,8.116346435546875,-9.3462548407197,-2.8715950082495807,0.7562037136025727
1731517657873394700,8.126394775390626,-9.35695743651986,-2.8320196614474056,0.7729165826682001
1731517657883441700,8.136441650390625,-9.369333518490194,-2.788519834677875,0.7811103374525904
1731517657893490000,8.146489990234375,-9.380473336663842,-2.7506220656991003,0.781778007581085
1731517657903537000,8.156536865234376,-9.38640564932227,-2.7311101404994726,0.7789799743603915
1731517657913583900,8.166583984375,-9.382634314090012,-2.7438544712603092,0.7796271131575108
1731517657923631600,8.176631591796875,-9.367220471858978,-2.7936045905962583,0.7882480803780257
1731517657933678600,8.1866787109375,-9.343421663120388,-2.867970680272579,0.8034897809125483
1731517657943726800,8.196726806640624,-9.31676863399446,-2.9484970461443063,0.8213223747231065
1731517657953773800,8.20677392578125,-9.293013664397597,-3.0183342602193353,0.8366215045332908
1731517657963821600,8.216821533203126,-9.277630217304825,-3.0632614894434806,0.8440324383769184
1731517657973868800,8.226868896484374,-9.27349940111041,-3.0763986189141868,0.8416442280661314
1731517657983916800,8.236916748046875,-9.280190423181653,-3.059431702022254,0.8296543689344078
1731517657993963800,8.2469638671875,-9.293656638476252,-3.023633243410289,0.8099214213952421
1731517658004010800,8.2570107421875,-9.308055166184902,-2.985505757328868,0.7856528762530535
1731517658014058800,8.267058837890625,-9.31881972130537,-2.958410245132446,0.7601282666351645
1731517658024105700,8.277105712890625,-9.323225847309827,-2.9501874834492803,0.7377252961691468
1731517658034153700,8.28715380859375,-9.321216845574975,-2.9606016176968812,0.721205319327116
1731517658044200700,8.29720068359375,-9.31479061191976,-2.9834821425467726,0.7098544887512922
1731517658054248700,8.307248779296875,-9.306811888125539,-3.0102266493484375,0.7015498209383338
1731517658064295700,8.317295654296874,-9.299358064988255,-3.0352570457085966,0.6924894393872469
1731517658074343700,8.32734375,-9.293644948038459,-3.055450523431599,0.680271105261892
1731517658084390700,8.337390625,-9.290328955358266,-3.0692697899475694,0.6631394262623042
1731517658094439000,8.34743896484375,-9.289673121798037,-3.0765739754810926,0.638001477874443
1731517658104485600,8.357485595703125,-9.290952640214561,-3.079379972812533,0.6049807403475046
1731517658114532600,8.36753271484375,-9.292196502795814,-3.0831279271692034,0.5654978941343725
1731517658124580600,8.37758056640625,-9.291324980658292,-3.0932378177732227,0.5230193367039785
1731517658134627800,8.3876279296875,-9.288073285385966,-3.1096891863584517,0.48157114523462946
1731517658144675800,8.39767578125,-9.283207140654325,-3.1296704826354977,0.44454003955516963
1731517658154722800,8.407722900390626,-9.277579363900422,-3.1504432215511797,0.41426242672391234
1731517658164770800,8.417770751953125,-9.272510974594951,-3.1682781534492968,0.39107605079524216
1731517658174817800,8.42781787109375,-9.268845437824725,-3.181339879596233,0.37143490972537546
1731517658184865800,8.43786572265625,-9.266645881953835,-3.1900095082640645,0.3514161309821531
1731517658194912800,8.447912841796875,-9.265661547091602,-3.195363144251704,0.32796233628895133
1731517658204960800,8.457960693359375,-9.265042538410425,-3.1999756064832208,0.2992023797453381
1731517658215007700,8.4680078125,-9.264308378916978,-3.205195094697177,0.2639953842204995
1731517658225054700,8.4780546875,-9.26368878571391,-3.210138980840146,0.22240181119740007
1731517658235102700,8.488102783203125,-9.26415523418188,-3.2117613213449716,0.17437847912143914
1731517658245149700,8.498149658203126,-9.266873845490812,-3.2063658920422196,0.12104262851951643
1731517658255197700,8.50819775390625,-9.272552475649118,-3.1915392020493742,0.06508554430222138
1731517658265244700,8.51824462890625,-9.28108941784799,-3.1672824204102157,0.00920014621480368
1731517658275292700,8.528292724609376,-9.291281726038456,-3.1369927883476016,-0.0417757657561684
1731517658285340000,8.53833984375,-9.301168913802504,-3.106704617589712,-0.08381608246634714
1731517658295387600,8.5483876953125,-9.308815044641495,-3.082744188548624,-0.11417087958650662
1731517658305434600,8.5584345703125,-9.313837841239572,-3.0668703275904057,-0.1308281642736867
1731517658315481600,8.568481689453124,-9.31760800742805,-3.0552500324234364,-0.13420024365582503
1731517658325529900,8.57852978515625,-9.322450186762213,-3.040715018853545,-0.12790551829263566
1731517658335576800,8.588576904296875,-9.330056570112705,-3.0177123289287087,-0.11766684107664041
1731517658345624600,8.59862451171875,-9.340407283735274,-2.98590235543102,-0.1075563476844225
1731517658355671600,8.608671630859375,-9.351807798671722,-2.950385344108939,-0.09646240534596144
1731517658365719800,8.6187197265625,-9.362580537098646,-2.916423745535314,-0.08334590767133049
1731517658375766800,8.628766845703124,-9.372618531510234,-2.8844202952921387,-0.06727021313123405
1731517658385814800,8.638814697265625,-9.383321127310394,-2.84980373994112,-0.04780441492854152
1731517658395861500,8.648861572265625,-9.396936980208753,-2.8048592673212287,-0.026962318837386555
1731517658405909800,8.65890966796875,-9.415020918431878,-2.743664209385216,-0.008259750958997756
1731517658415956700,8.668956787109375,-9.435497889271378,-2.672398716072738,0.006907977302905055
1731517658426003700,8.679003662109375,-9.452312830471993,-2.6122011447414755,0.023970085068710612
1731517658436052000,8.689052001953126,-9.459680144369601,-2.585010355477035,0.05052434597830288
1731517658446098700,8.6990986328125,-9.454380868917703,-2.6033511910706757,0.08733630161490291
1731517658456146700,8.709146728515625,-9.437655359566211,-2.6616762465283275,0.12855349733997135
1731517658466193700,8.719193603515626,-9.413876424571871,-2.7427403725385666,0.16336053376179188
1731517658476242000,8.729241943359375,-9.388815048551558,-2.826179118725657,0.18234437996670602
1731517658486289000,8.739288818359375,-9.369146471485495,-2.8908000594571233,0.18096850676992907
1731517658496336600,8.749336669921876,-9.360019746699928,-2.921301872965693,0.16251080333096907
1731517658506383600,8.759383544921874,-9.362844156470894,-2.9134815546035764,0.1384330497868359
1731517658516430600,8.7694306640625,-9.373632676988839,-2.87940159034729,0.12018055919692851
1731517658526478800,8.779478759765626,-9.38657749875784,-2.8373516701251265,0.10946435499652288
1731517658536525800,8.78952587890625,-9.396711939281225,-2.8037629965171216,0.10535096486094407
1731517658546573600,8.799573486328125,-9.400229592013359,-2.791805724480748,0.10903341623335144
1731517658556620800,8.809620849609376,-9.396296928739547,-2.8045822039455173,0.11960158113203942
1731517658566668800,8.819668701171874,-9.387345560520886,-2.8337340641498563,0.13443934964132495
1731517658576715800,8.8297158203125,-9.377672892290354,-2.8646652089864015,0.15272636355534194
1731517658586763500,8.839763427734376,-9.370192181146145,-2.887891186273098,0.17312590351076795
1731517658596810800,8.849810791015624,-9.36523952717483,-2.9025957111909984,0.193936837278679
1731517658606858800,8.859858642578125,-9.361410908797383,-2.9135721554964777,0.21324120240854097
1731517658616905700,8.86990576171875,-9.356544179543853,-2.9279470100685954,0.22931699741333722
1731517658626952700,8.87995263671875,-9.348649626901745,-2.952055907669663,0.24186635359134523
1731517658637000700,8.890000732421875,-9.336770388537644,-2.988552577678859,0.2522964891256764
1731517658647047700,8.900047607421875,-9.321344271346927,-3.035340632338822,0.2638731278140098
1731517658657095700,8.910095703125,-9.30415932779014,-3.0859760100767013,0.2824060336473398
1731517658667142700,8.920142578125,-9.287529095506667,-3.1330297299355268,0.3103479883389547
1731517658677190700,8.930190673828125,-9.273436857268214,-3.170855310460925,0.34558793628532436
1731517658687237600,8.940237548828126,-9.262618526133894,-3.19802827180773,0.3832782730584964
1731517658697285600,8.95028564453125,-9.255850347173213,-3.213166804228723,0.41854269785899667
1731517658707332900,8.960332763671875,-9.253127059689163,-3.2174016653195023,0.44536461727842686
1731517658717379800,8.9703798828125,-9.252718478888273,-3.2163287753909824,0.4613188865290954
1731517658727427800,8.980427734375,-9.253215907016395,-3.214121036213636,0.4666918848043307
1731517658737474600,8.990474609375,-9.254150557518004,-3.211566675555706,0.4657506584314629
1731517658747522800,9.000522705078126,-9.255923996931314,-3.2070038976848125,0.46193800480812786
1731517658757569800,9.01056982421875,-9.259294934669137,-3.198039669984579,0.45648960320912296
1731517658767617800,9.02061767578125,-9.264020794147253,-3.185143071271479,0.45073644650988276
1731517658777664800,9.030664794921876,-9.270091638493538,-3.168154819330573,0.4456192861592397
1731517658787712800,9.040712646484375,-9.277600406688451,-3.1465657955959436,0.44230972321983425
1731517658797759700,9.050759765625,-9.286514950028062,-3.120027625021338,0.44322541329264636
1731517658807807700,9.060807861328126,-9.296828838771582,-3.0882980232834814,0.44918823068719355
1731517658817854700,9.070854736328124,-9.306811888125539,-3.056115709342062,0.4623763962253928
1731517658827902000,9.08090185546875,-9.31452816159129,-3.029567309634387,0.4813181568542495
1731517658837949700,9.09094970703125,-9.31924817585051,-3.0116736332863567,0.5018103252628818
1731517658847996700,9.10099658203125,-9.321500338691472,-3.001038842025399,0.5232460581319406
1731517658858044700,9.111044677734375,-9.323262087666988,-2.9910584230199455,0.5483918975653127
1731517658868092000,9.121091796875,-9.326800783187151,-2.973945960177481,0.5803627972457558
1731517658878139400,9.131139404296874,-9.334071650972962,-2.9436741560325026,0.6166595607686788
1731517658888186600,9.1411865234375,-9.345950889337063,-2.8976658535733817,0.6535412845727055
1731517658898234600,9.151234619140626,-9.361840532386303,-2.838487103895843,0.6850698107805102
1731517658908281600,9.161281494140624,-9.380416053518653,-2.7723113349378106,0.7017600296229124
1731517658918328600,9.17132861328125,-9.40045054128766,-2.7049776281163096,0.6964243676833808
1731517658928376600,9.18137646484375,-9.419394895732403,-2.6450232178911564,0.6702502811808139
1731517658938423600,9.191423583984376,-9.432712057945132,-2.6054610228314994,0.637099706729129
1731517658948471600,9.201471435546875,-9.436634199824928,-2.597069626583159,0.6128214439105242
1731517658958518500,9.2115185546875,-9.429946100363134,-2.6229768057778475,0.6053855217561125
1731517658968566800,9.22156689453125,-9.416344275990127,-2.6702292630791664,0.610508344662562
1731517658978613500,9.231613525390625,-9.401773314324021,-2.7192174581319093,0.6187924811441451
1731517658988661500,9.24166162109375,-9.3915728228271,-2.754110200075805,0.6193687466621398
1731517658998708700,9.251708740234376,-9.388146940031648,-2.7697569742798804,0.6012685514239594
1731517659008755700,9.261755615234375,-9.390053650435805,-2.7701182088077068,0.5689663739625365
1731517659018803700,9.2718037109375,-9.396532491061091,-2.756135860684514,0.5284634274540468
1731517659028850400,9.281850341796876,-9.40483328641653,-2.7368843399867413,0.47849458733350037
1731517659038898700,9.291898681640625,-9.410699548101425,-2.7250053938835856,0.4283253658026457
1731517659048945700,9.301945556640625,-9.412287109553814,-2.726151641309261,0.3838365645283833
1731517659058993700,9.31199365234375,-9.409558561372757,-2.7401564935252067,0.3494718650465831
1731517659069040600,9.32204052734375,-9.403916171571613,-2.7622315472111105,0.3268414425002411
1731517659079088600,9.332088623046875,-9.39742797859609,-2.7858815951287745,0.3123967375623062
1731517659089135600,9.342135498046876,-9.391134431409835,-2.8079721386447547,0.30376645452417433
1731517659099183600,9.35218359375,-9.385100996464491,-2.8286533998847005,0.29829448938649145
1731517659109230600,9.362230712890625,-9.378991573673487,-2.8495079718649388,0.2918952716023661
1731517659119277800,9.37227783203125,-9.372562417408824,-2.87154970780313,0.28224768301416187
1731517659129325600,9.38232568359375,-9.365998821109534,-2.8942312029495834,0.26810309353396294
1731517659139372500,9.39237255859375,-9.359788860553502,-2.915995290990174,0.24841575696850193
1731517659149420500,9.402420654296876,-9.353804525446892,-2.9369974547475572,0.22532685006493702
1731517659159467800,9.4124677734375,-9.347720237097144,-2.958039073732495,0.20128467929083851
1731517659169515500,9.422515625,-9.341172422888874,-2.9800898697599765,0.17874005359811707
1731517659179562500,9.4325625,-9.334156991168856,-3.0030761930719017,0.15946887835180387
1731517659189610800,9.44261083984375,-9.326957435053586,-3.0261504869282243,0.1437499796264339
1731517659199657700,9.45265771484375,-9.319701180315016,-3.048952978105843,0.13204759566658175
1731517659209704700,9.46270458984375,-9.313385421296953,-3.0685595958516,0.12320849218335933
1731517659219752400,9.47275244140625,-9.308910321709513,-3.0824063348963855,0.11549933344498275
1731517659229799400,9.48279931640625,-9.306588016241788,-3.089741792351007,0.10632343575544655
1731517659239847700,9.49284765625,-9.306488062998652,-3.090486180977523,0.09253174223299138
1731517659249894700,9.502894775390626,-9.308160380125045,-3.085945030416548,0.07398455671255942
1731517659259942700,9.512942626953125,-9.31074338235557,-3.0786405526220797,0.04916061531046871
1731517659269989400,9.5229892578125,-9.313629166924953,-3.0702403885453937,0.01779996104943566
1731517659280037600,9.53303759765625,-9.316961526218057,-3.0601269908100366,-0.01549886276652105
1731517659290084600,9.543084716796875,-9.321165407648682,-3.0469869387298822,-0.04615595360177103
1731517659300132600,9.553132568359375,-9.326308031234145,-3.030689007140696,-0.07269777743818703
1731517659310179600,9.5631796875,-9.332842985960841,-3.0098768129974602,-0.09520943700964563
1731517659320226600,9.5732265625,-9.34097602353394,-2.983932808923721,-0.11270078876763581
1731517659330274600,9.583274658203125,-9.350632909673452,-2.9530498871430755,-0.12467442741692066
1731517659340321500,9.593321533203126,-9.362169618210196,-2.9159280709728597,-0.13237398720989002
1731517659350369800,9.603369873046875,-9.375596670538187,-2.8722271686732768,-0.13741248370059764
1731517659360416800,9.613416748046875,-9.390461062192916,-2.82313375968039,-0.13979692201856522
1731517659370464500,9.623464599609376,-9.405739879867435,-2.7718364109024405,-0.13914159078183583
1731517659380511500,9.633511474609374,-9.419589541521669,-2.7246961818039415,-0.13322237506699747
1731517659390558700,9.643558837890625,-9.430229593479632,-2.6883266453057524,-0.11855913200755602
1731517659400606700,9.653606689453126,-9.43810485689938,-2.661528947012126,-0.09392855775309726
1731517659410653700,9.66365380859375,-9.446761041563748,-2.6316049333915115,-0.06116616976824589
1731517659420701400,9.673701416015625,-9.45966436227858,-2.5854607295930383,-0.023084491023351437
1731517659430748700,9.683748779296875,-9.47859235011041,-2.5152517595961688,0.013503078989556523
1731517659440796700,9.693796630859374,-9.503162143221497,-2.420598376433551,0.03163011200231267
1731517659450843600,9.70384375,-9.529007363095879,-2.316854508842528,0.02421167755553033
1731517659460891600,9.7138916015625,-9.549703529644011,-2.23014594720453,0.000023392836095490563
1731517659470938600,9.723938720703124,-9.559045358484983,-2.1896439870767295,-0.02225454528852133
1731517659480986600,9.733986572265625,-9.552647766402362,-2.2173526627354323,-0.025591295345663092
1731517659491033600,9.74403369140625,-9.530344749179482,-2.311468870281428,-0.0048973047715961
1731517659501080600,9.75408056640625,-9.497138645148278,-2.4441882185965773,0.026285869464103596
1731517659511128600,9.764128662109375,-9.459241752952337,-2.586496502381563,0.056267154813464726
1731517659521175600,9.774175537109375,-9.423602284294367,-2.713059520024061,0.07357967027267441
1731517659531223600,9.7842236328125,-9.396655240657925,-2.80501562692672,0.07172042030601296
1731517659541270500,9.7942705078125,-9.381938148519396,-2.854164857760072,0.058036539106164124
1731517659551318500,9.804318603515625,-9.380147173449396,-2.8603102286472915,0.04297283005362842
1731517659561365500,9.814365478515626,-9.388191948217154,-2.833920818893611,0.033565212817315476
1731517659571413500,9.82441357421875,-9.400763845020531,-2.7919860494837163,0.028956554544658866
1731517659581460700,9.834460693359375,-9.412920146760344,-2.750764689040184,0.024625048695970327
1731517659591507700,9.8445078125,-9.420244790560007,-2.72558494733721,0.02355506539387861
1731517659601555700,9.8545556640625,-9.42074163416624,-2.7238325507119296,0.027421983654832
1731517659611602400,9.8646025390625,-9.415133731156587,-2.743049584618211,0.036377475492761005
1731517659621650700,9.874650634765626,-9.4060648740381,-2.7737513046130537,0.05125249128949363
1731517659631697700,9.88469775390625,-9.396983741959929,-2.8039047430753707,0.07211293132151476
1731517659641745700,9.89474560546875,-9.390189259514212,-2.825816422893107,0.0974052026214078
1731517659651792600,9.904792724609376,-9.386571653538942,-2.8366864842146633,0.12595780915780924
1731517659661840600,9.914840576171875,-9.385876072490214,-2.8375498230457303,0.15499686577059327
1731517659671887600,9.9248876953125,-9.386405064800382,-2.834186484092474,0.1821236316218041
1731517659681934600,9.9349345703125,-9.386450657507776,-2.832442270773649,0.2054271676567383
1731517659691982600,9.944982666015624,-9.384681894269585,-2.836825015902519,0.224831942687463
1731517659702029800,9.95502978515625,-9.380561599469184,-2.8490318787857887,0.24180633049979805
1731517659712077600,9.96507763671875,-9.374613504719733,-2.8671055878758427,0.2582948892902583
1731517659722124500,9.97512451171875,-9.367752971300483,-2.8878678053975104,0.27534252500189466
1731517659732172500,9.985172607421875,-9.361737656533718,-2.9057044908612966,0.29177858642013743
1731517659742219800,9.9952197265625,-9.35789150249958,-2.916345419602096,0.3085195308027789
1731517659752267500,10.005267578125,-9.35671661350131,-2.918188124859333,0.32621794030703605
1731517659762314500,10.015314453125,-9.358242215633393,-2.9110584191098807,0.3455832601102069
1731517659772361500,10.025361572265625,-9.361736487489939,-2.897344366534054,0.36560076021179555
1731517659782409700,10.03540966796875,-9.366068379214406,-2.8807039051175116,0.38560803118031467
1731517659792456700,10.045456787109375,-9.370220238196849,-2.8649820198506117,0.40154337653480465
1731517659802504400,10.05550439453125,-9.373448552593588,-2.852784217056632,0.41287393150757995
1731517659812551400,10.065551513671876,-9.375856782779097,-2.8439593978270885,0.41903829935621467
1731517659822599700,10.075599609375,-9.378438031443952,-2.8349256120219826,0.4224696255117655
1731517659832646700,10.085646728515625,-9.382093046820163,-2.822274512502551,0.42599948013834654
1731517659842694400,10.0956943359375,-9.386993678343295,-2.8050667725920677,0.431661232227087
1731517659852741600,10.10574169921875,-9.392211705252528,-2.7859733650654555,0.4417018935197964
1731517659862788600,10.11578857421875,-9.396710770237446,-2.7683468152210113,0.4565889719303697
1731517659872836600,10.125836669921876,-9.399971233338118,-2.753909124545753,0.47635103596616535
1731517659882883600,10.135883544921874,-9.402739529007672,-2.740398485587537,0.49909295606296505
1731517659892931600,10.145931640625,-9.405886010339856,-2.7247446971207854,0.524843885250017
1731517659902978300,10.155978271484376,-9.409372098889946,-2.7064386405795813,0.5561347302444278
1731517659913026600,10.166026611328125,-9.413427511760592,-2.6844641246587035,0.5928039072763175
1731517659923073500,10.176073486328125,-9.41867067311108,-2.6573887784674763,0.6303260478757321
1731517659933121500,10.18612158203125,-9.424949607250094,-2.6261083818018434,0.6665335256800055
1731517659943168800,10.196168701171874,-9.432021737593411,-2.5923408444955944,0.6979410558566451
1731517659953215500,10.206215576171875,-9.438819142648578,-2.561384565217793,0.7199905367098748
1731517659963263500,10.216263427734376,-9.44314051297903,-2.542682202835381,0.7295570411521941
1731517659973310500,10.226310546875,-9.442688093036413,-2.544417940586805,0.7293561117526144
1731517659983358700,10.236358642578125,-9.435957323476671,-2.570681678134203,0.7243560384429991
1731517659993405700,10.24640576171875,-9.422927161511778,-2.619300163091719,0.7197859540484846
1731517660003453400,10.256453369140624,-9.405483274757861,-2.681323488545418,0.7195673428617417
1731517660013500400,10.26650048828125,-9.387034594875573,-2.743798064897954,0.7249390259627252
1731517660023548700,10.276548583984376,-9.372152083042263,-2.7931723366588352,0.7289260497722775
1731517660033595600,10.286595703125,-9.364525241425634,-2.8200504067122933,0.723438631337136
1731517660043642600,10.296642578125,-9.3655756272614,-2.82089562536478,0.7063487456526607
1731517660053690400,10.3066904296875,-9.373669501867889,-2.8003423744186757,0.6802841108739376
1731517660063737600,10.316737548828126,-9.384642146781086,-2.770563322226703,0.6502699347518384
1731517660073785600,10.32678564453125,-9.39493031656146,-2.7424422663748262,0.6202236099258065
1731517660083832600,10.33683251953125,-9.40248350841999,-2.7224706147089597,0.5931652879346162
1731517660093880300,10.34688037109375,-9.406527815374732,-2.7129779792204496,0.5721587402630597
1731517660103927600,10.356927490234375,-9.408020684280991,-2.711291341307759,0.5553661204921081
1731517660113975600,10.3669755859375,-9.408552599200606,-2.7122105019792913,0.5416941169597208
1731517660124022500,10.3770224609375,-9.409629873043299,-2.71082313927412,0.5298031516252085
1731517660134069500,10.387069580078125,-9.411652318781615,-2.7061244600638745,0.5177628774804994
1731517660144117500,10.397117431640625,-9.41436157774031,-2.699329685357213,0.5037890414573252
1731517660154164500,10.40716455078125,-9.416877944475411,-2.6938471622928977,0.48578090841677035
1731517660164212500,10.41721240234375,-9.418252155438065,-2.6930285393863915,0.46314960908759384
1731517660174259500,10.427259521484375,-9.417226319521665,-2.7010502255395052,0.43653387976475055
1731517660184307500,10.437307373046876,-9.41231224399507,-2.722654739104211,0.4073235308388248
1731517660194354400,10.4473544921875,-9.403032374474405,-2.7588033263280987,0.3773198030455038
1731517660204402400,10.45740234375,-9.389908104485272,-2.8065871140271423,0.3508316821577027
1731517660214449400,10.467449462890626,-9.374522903826833,-2.8601909861817956,0.32865232784710824
1731517660224496600,10.47749658203125,-9.358596435898543,-2.9140254522219298,0.30904512557946145
1731517660234544600,10.487544677734375,-9.343093746340275,-2.9652278161928054,0.2905216816942207
1731517660244591400,10.49759130859375,-9.329118412479758,-3.0106431211948395,0.2719599698915146
1731517660254639600,10.5076396484375,-9.317796807998418,-3.047026393957436,0.2543155190641992
1731517660264686600,10.5176865234375,-9.30962402293682,-3.0732082984402775,0.23806732663456348
1731517660274734600,10.527734619140626,-9.3042750631243,-3.090662998849153,0.22056754497494546
1731517660284781600,10.537781494140624,-9.300234263300895,-3.104272422006726,0.19881050772964953
1731517660294829600,10.54782958984375,-9.296351284387708,-3.1176313775345683,0.16914174751173705
1731517660304876500,10.55787646484375,-9.293201295924186,-3.128830816940963,0.13118150775600224
1731517660314923500,10.567923583984374,-9.291444807645679,-3.135515409271419,0.08935331312627531
1731517660324971500,10.577971435546875,-9.291060776764153,-3.1375562674492596,0.04814884445203933
1731517660335018800,10.588018798828125,-9.291642376044392,-3.136180887442827,0.011824655207718023
1731517660345066500,10.59806640625,-9.292607421684265,-3.133305332006514,-0.015008793677657376
1731517660355113500,10.608113525390625,-9.293859467571973,-3.1294495333611962,-0.033263604088814465
1731517660365161500,10.618161376953125,-9.295641674813627,-3.1239862995192405,-0.04631712181312032
1731517660375208700,10.628208740234374,-9.297951705321669,-3.116881728211045,-0.05936165936323814
1731517660385256400,10.63825634765625,-9.301068960559368,-3.107234486682713,-0.07483387615142856
1731517660395303400,10.648303466796875,-9.305191008925437,-3.0944471935629845,-0.09056940178461373
1731517660405350400,10.658350341796876,-9.310811186894774,-3.0771134891852734,-0.10272700043236836
1731517660415398700,10.668398681640625,-9.318270270729064,-3.054312751573324,-0.1067651242414955
1731517660425445600,10.678445556640625,-9.3273987490803,-3.026611674699187,-0.0981468330352567
1731517660435493400,10.688493408203126,-9.338762439137696,-2.991989858651161,-0.07677841151505709
1731517660445540400,10.698540283203124,-9.3538436884135,-2.9451161715343592,-0.04778714413333218
1731517660455588600,10.708588623046875,-9.37301425282955,-2.8838632459312676,-0.01796487613742938
1731517660465635600,10.718635498046876,-9.394915703514219,-2.8117399667456744,0.007561622330980026
1731517660475683300,10.728683349609375,-9.416873852822183,-2.7372031966775654,0.024183145580790003
1731517660485730300,10.738730224609375,-9.436123327693343,-2.6699735347524283,0.03464911048032809
1731517660495777500,10.748777587890626,-9.450734621369838,-2.617565594384074,0.04848647434199228
1731517660505825500,10.758825439453124,-9.458519868418573,-2.5886291304960847,0.07608918714188039
1731517660515872500,10.76887255859375,-9.458522206506133,-2.5869714264169335,0.11966117496532387
1731517660525920500,10.77892041015625,-9.452249117586016,-2.606840202230215,0.17249242791282013
1731517660535967500,10.788967529296874,-9.442702121561766,-2.6375062663897872,0.22208792294263838
1731517660546015500,10.799015380859375,-9.434027232196927,-2.6653502588659523,0.2557766776579432
1731517660556062500,10.8090625,-9.430525361555814,-2.676915901236236,0.2640009554447606
1731517660566110700,10.81911083984375,-9.434633381396532,-2.6639608503341674,0.2477723627647385
1731517660576157700,10.82915771484375,-9.445380985382199,-2.6282602991387245,0.2177489256239496
1731517660586204400,10.839204345703125,-9.458934878960251,-2.581497086659074,0.1865699069735594
1731517660596252400,10.84925244140625,-9.4716558288455,-2.5361688754186034,0.1611559363896027
1731517660606299600,10.859299560546875,-9.480593168538809,-2.5035218665748835,0.14532579584210178
1731517660616347600,10.86934765625,-9.484643905234336,-2.488531510452926,0.13829166855476796
1731517660626394600,10.87939453125,-9.484966561317444,-2.4873133668348193,0.13808155120173468
1731517660636442400,10.8894423828125,-9.484300206363201,-2.4895146762713787,0.14404831411903724
1731517660646489600,10.899489501953125,-9.484741520389914,-2.4871222281768914,0.1558282933597453
1731517660656537600,10.90953759765625,-9.486522558587788,-2.4792583629339933,0.17189595985701306
1731517660666584600,10.91958447265625,-9.488433360645175,-2.4707661366596816,0.18795332415597513
1731517660676631600,10.929631591796875,-9.48900268496573,-2.467746204316616,0.19858575906306505
1731517660686679600,10.939679443359376,-9.486792023178934,-2.4759596136495468,0.2019419741557911
1731517660696726500,10.9497265625,-9.481175352340935,-2.4975515599936244,0.19983871826622635
1731517660706774500,10.9597744140625,-9.472297633880377,-2.531171213261783,0.1978151765493676
1731517660716821500,10.969821533203126,-9.461411498206854,-2.57112503798753,0.20345168459899723
1731517660726869500,10.979869384765625,-9.450617132470011,-2.609031282533705,0.2217670386915095
1731517660736916500,10.98991650390625,-9.441352460518479,-2.639554431091249,0.2529777311217971
1731517660746964500,10.999964599609376,-9.434107311695813,-2.6611779416173693,0.2934910711601376
1731517660757011500,11.010011474609374,-9.428916757315397,-2.674289644385874,0.33776940802149474
1731517660767058700,11.02005859375,-9.42577787476778,-2.679867736779153,0.37868718240857124
1731517660777106400,11.0301064453125,-9.42417453122437,-2.681004339593649,0.4093137182753533
1731517660787153400,11.0401533203125,-9.42316681548655,-2.6819506805330513,0.425965687466599
1731517660797201700,11.05020166015625,-9.4219001565516,-2.686078866378963,0.42797227804865684
1731517660807248600,11.06024853515625,-9.419936747524142,-2.694066650262475,0.4209335019856691
1731517660817296400,11.07029638671875,-9.41648865289688,-2.707341726899147,0.4128237722229212
1731517660827343400,11.08034326171875,-9.410096321511269,-2.72923148714602,0.41445371151231225
1731517660837391600,11.0903916015625,-9.400348834478855,-2.760236866262555,0.4300173374775797
1731517660847438600,11.1004384765625,-9.389424120360612,-2.7926608800053594,0.45841461645495146
1731517660857485600,11.110485595703125,-9.380391503599286,-2.816381655071676,0.4966250315794721
1731517660867533600,11.120533447265625,-9.374663773602247,-2.827456883576512,0.5399545067507774
1731517660877580000,11.130580078125,-9.371310371521115,-2.8296812816277144,0.5846591792654245
1731517660887628000,11.1406279296875,-9.367960476571321,-2.8315365541055795,0.6277742445010691
1731517660897675000,11.150675048828125,-9.363072120007873,-2.8395898044407364,0.6633212856352328
1731517660907723000,11.160722900390626,-9.356596786513924,-2.8551223046153784,0.6875756561215967
1731517660917770000,11.17077001953125,-9.35004020447731,-2.872140659433603,0.7056457119498402
1731517660927817000,11.18081689453125,-9.34552828001082,-2.8817168815523386,0.726079866560921
1731517660937865000,11.190864990234376,-9.344567326024174,-2.8776284431949257,0.7541210621096194
1731517660947912000,11.200911865234374,-9.347518577045202,-2.8586206681251523,0.789027613383159
1731517660957960000,11.2109599609375,-9.354165175452827,-2.8258728292554616,0.8272940695438533
1731517660968007200,11.221007080078126,-9.363535645866394,-2.7828511413916943,0.8662125598724931
1731517660978055000,11.231054931640625,-9.373644951948522,-2.738100730039179,0.8988718436758965
1731517660988102000,11.241101806640625,-9.38136999324262,-2.7047128397002815,0.9191348064385354
1731517660998150000,11.25114990234375,-9.382428562384844,-2.6979776862263676,0.9280842749610543
1731517661008197000,11.261197021484374,-9.373716848140955,-2.7271961819261312,0.9307079745281487
1731517661018244000,11.271244140625,-9.355649276530743,-2.7882781348764896,0.9315151992578059
1731517661028291800,11.281291748046876,-9.33263957234323,-2.8650284893408418,0.9294286022420972
1731517661038338800,11.2913388671875,-9.31068785277605,-2.9377877283424136,0.9224338479839265
1731517661048387000,11.301386962890625,-9.294968890118598,-2.992144464690983,0.9060951459929346
1731517661058434000,11.31143408203125,-9.287683993807434,-3.0222268837437034,0.8805990318171679
1731517661068482000,11.32148193359375,-9.288864143502712,-3.0277336644664405,0.8486560795895755
1731517661078528800,11.33152880859375,-9.296069544836879,-3.0153447230145334,0.8131243090897798
1731517661088577000,11.341576904296875,-9.305218481454252,-2.9962676821008323,0.7782525368686765
1731517661098624000,11.3516240234375,-9.313122386446596,-2.9793033955574035,0.7482585998170077
1731517661108671000,11.3616708984375,-9.317983855003117,-2.9698166052877903,0.7250851564351469
1731517661118719000,11.371718994140625,-9.318543242451549,-2.9715339305996893,0.7107195811480284
1731517661128766000,11.381765869140626,-9.315197439154982,-2.983229921351373,0.7055681166689842
1731517661138814000,11.39181396484375,-9.310367534780502,-2.997926262962818,0.7070231377828866
1731517661148861000,11.40186083984375,-9.306505598655342,-3.0088819567412135,0.7113121402136982
1731517661158909200,11.4119091796875,-9.304735666373372,-3.0131922211557627,0.7162072187788784
1731517661168956200,11.4219560546875,-9.305753903505206,-3.0094062728762623,0.7188925854053347
1731517661179004000,11.43200390625,-9.309706440523266,-2.9977801324903965,0.7162886134520172
1731517661189051000,11.44205078125,-9.314840296280384,-2.984104658359289,0.7065812392342835
1731517661199097900,11.452097900390624,-9.318473684346674,-2.976743481941521,0.6895164879910648
1731517661209146000,11.46214599609375,-9.318517523488401,-2.981663402687013,0.6673061905529349
1731517661219193000,11.472193115234376,-9.314061713123321,-3.000983020184934,0.6424458900626748
1731517661229240800,11.48224072265625,-9.305356428620218,-3.032725481404364,0.6191106802478432
1731517661239288000,11.4922880859375,-9.29429259829223,-3.0703920719757676,0.5993311901532113
1731517661249336000,11.502336181640626,-9.283027107912302,-3.107591045035422,0.5819563865801319
1731517661259383000,11.512383056640624,-9.272730170303582,-3.141214497695863,0.5653606045555323
1731517661269430000,11.522429931640625,-9.263490048271416,-3.171338710063696,0.5484102369396016
1731517661279478000,11.53247802734375,-9.254723388969898,-3.19980901774466,0.5307572740122676
1731517661289525000,11.54252490234375,-9.246433699530362,-3.2265842119455335,0.5128340062435716
1731517661299573000,11.552572998046875,-9.239472628346086,-3.2491493872359394,0.4955441775402054
1731517661309620000,11.562619873046875,-9.234736831995844,-3.2653350906223055,0.47707752360980954
1731517661319668000,11.57266796875,-9.231814222547412,-3.2762492833465338,0.4584548388674855
1731517661329715000,11.58271484375,-9.230270500236749,-3.283059255622327,0.4404637665595859
1731517661339763000,11.592762939453126,-9.230131968548893,-3.2857702681466936,0.42280364323910324
1731517661349810000,11.602809814453124,-9.231942232841252,-3.283052241359651,0.4039772160856053
1731517661359857200,11.612857177734375,-9.236244898471236,-3.273717719042301,0.38070546342842276
1731517661369905000,11.62290478515625,-9.242163767126202,-3.2602313377425074,0.35169615349993105
1731517661379951900,11.632951904296876,-9.24832170523405,-3.2460005678161976,0.3200258442012593
1731517661389999900,11.642999755859375,-9.255045460531115,-3.2296073591589924,0.29010104512935503
1731517661400047000,11.653047119140625,-9.262955210742353,-3.208817376847565,0.2674543107690289
1731517661410095000,11.66309521484375,-9.271844619640708,-3.184042708814144,0.255248434266448
1731517661420141800,11.673141845703125,-9.280958484944701,-3.157549838685989,0.2531304374654777
1731517661430190000,11.683190185546875,-9.290069427639246,-3.1305703540846705,0.2540188376725651
1731517661440237000,11.693237060546876,-9.298912659308314,-3.1042841124445197,0.25303437494616954
1731517661450284000,11.703283935546875,-9.3070123791337,-3.0801848594546315,0.24972033676104619
1731517661460332000,11.71333203125,-9.315355844587087,-3.0553456017524003,0.2437002910202369
1731517661470378800,11.723378662109376,-9.32598128349781,-3.0233786841273305,0.23586994445445014
1731517661480427000,11.733427001953125,-9.340441770526766,-2.978931055113673,0.22913596002431585
1731517661490474000,11.743473876953125,-9.359639807471632,-2.918397091434896,0.22469235155368222
1731517661500522000,11.75352197265625,-9.38301249975264,-2.842604476086795,0.2214949802844785
1731517661510569200,11.7635693359375,-9.406483976233005,-2.7639319213882088,0.22164260859424248
1731517661520617000,11.773616943359375,-9.42477015902996,-2.700204422365129,0.23018943286631255
1731517661530664000,11.783663818359376,-9.433234620514511,-2.6687296721711755,0.24970312989791854
1731517661540711000,11.7937109375,-9.428944814366101,-2.6812013234704732,0.2766722209693864
1731517661550759200,11.80375927734375,-9.412723747405408,-2.73447231040895,0.3060735806890763
1731517661560806100,11.81380615234375,-9.38935339321196,-2.8112071750432253,0.32793150275927035
1731517661570854000,11.82385400390625,-9.364592461442946,-2.8917300337836145,0.3356864277349785
1731517661580900900,11.83390087890625,-9.344714625540375,-2.9562986598059533,0.32709362716302276
1731517661590949000,11.84394921875,-9.33478593672216,-2.989787087909877,0.3055061925972812
1731517661600996000,11.85399609375,-9.336939315363765,-2.985651887801289,0.2789898867946118
1731517661611043000,11.86404296875,-9.349425287449359,-2.948358806717396,0.2565311675533652
1731517661621090800,11.8740908203125,-9.367515070891379,-2.8917522456154225,0.2404568338532932
1731517661631138000,11.884137939453124,-9.386290498510002,-2.831420526510477,0.22582575776409355
1731517661641186000,11.89418603515625,-9.401237892273068,-2.7826079802855848,0.21023170012794434
1731517661651233000,11.90423291015625,-9.409731579852103,-2.754835591740906,0.1954978212513961
1731517661661280800,11.91428076171875,-9.411776821944118,-2.7486300150990486,0.18404089995259418
1731517661671328000,11.924327880859375,-9.408785238912701,-2.759195832777023,0.17883576905755325
1731517661681376000,11.9343759765625,-9.402766417014599,-2.7794302270323037,0.18202943226601928
1731517661691423000,11.944423095703126,-9.395850938537716,-2.8019655917063355,0.1932711399115622
1731517661701470000,11.954469970703125,-9.389212523436546,-2.8229125181451438,0.2103397453459911
1731517661711518000,11.96451806640625,-9.383120636302232,-2.841581270518899,0.22987709724782032
1731517661721565000,11.97456494140625,-9.377132794064282,-2.859649426651001,0.24934585915915666
1731517661731613000,11.984613037109375,-9.370899452632665,-2.878334837898612,0.2679793210238218
1731517661741660000,11.994659912109375,-9.364691830164194,-2.896758675600588,0.2858718831270002
1731517661751708000,12.0047080078125,-9.35874899611175,-2.9139474185496566,0.30514979864135383
1731517661761755000,12.0147548828125,-9.353457903966307,-2.9286373304203153,0.3260228926589712
1731517661771803000,12.024802978515625,-9.348802187114954,-2.9410487759649753,0.3471571583634242
1731517661781850000,12.03485009765625,-9.34463162343204,-2.9517306212380525,0.3681489833898842
1731517661791897000,12.04489697265625,-9.34146293026805,-2.9590868292197583,0.38892376813217994
1731517661801945000,12.054945068359375,-9.33978184531331,-2.9616622326657174,0.4091664187591523
1731517661811991800,12.06499169921875,-9.339292015969752,-2.9602602569133043,0.42996801844313737
1731517661822040000,12.0750400390625,-9.3390172906816,-2.9581296746253964,0.45012543847206976
1731517661832087000,12.085087158203125,-9.338648457369208,-2.9566774299904703,0.46699517859984185
1731517661842135000,12.095135009765626,-9.338699310773611,-2.9547464619278907,0.4780711012244224
1731517661852182000,12.10518212890625,-9.339965969708562,-2.9497391551598904,0.4842047816738486
1731517661862229000,12.11522900390625,-9.34207375564277,-2.942255813667178,0.48904977401960636
1731517661872277000,12.125277099609375,-9.3443335172683,-2.933755111825466,0.49688050417788326
1731517661882325000,12.135324951171874,-9.346683295264839,-2.9238883823275565,0.5106535569319501
1731517661892372700,12.145372802734375,-9.349728069788217,-2.910530303582549,0.5308322024120018
1731517661902419700,12.155419677734375,-9.354492507711052,-2.8905121824264524,0.5556907128039748
1731517661912468000,12.165468017578124,-9.361013433912396,-2.8644185407489537,0.5804496718116104
1731517661922515000,12.175514892578125,-9.367966321790218,-2.8375343332156535,0.5999917364211753
1731517661932563000,12.18556298828125,-9.373709249356388,-2.81588890311867,0.612146576856263
1731517661942609700,12.195609619140624,-9.377574108090997,-2.801330216412246,0.6197109842285513
1731517661952656600,12.20565673828125,-9.379897582602501,-2.7907135453298686,0.6323200712371617
1731517661962705000,12.215704833984375,-9.382207613110541,-2.777029595631361,0.6577727846626192
1731517661972752000,12.225751953125,-9.387611517980694,-2.749280295701325,0.6961240695625543
1731517661982800000,12.2357998046875,-9.397366603797673,-2.703153043037653,0.7435401929929852
1731517661992846800,12.245846923828125,-9.409874787715077,-2.6447251117274164,0.7937715930398553
1731517662002894800,12.255894775390624,-9.422693352755903,-2.5844983143016695,0.8388115619234741
1731517662012941800,12.26594189453125,-9.433904482600092,-2.5334774443775414,0.8679434022530913
1731517662022989800,12.27598974609375,-9.441140863594413,-2.503618312686682,0.8758635277278721
1731517662033037000,12.286037109375,-9.440723514965176,-2.507038642524183,0.8705599414270371
1731517662043084000,12.296083984375,-9.431545352253318,-2.544322955779731,0.8618344178535043
1731517662053131800,12.3061318359375,-9.41602395799458,-2.6022847308829427,0.8584826232075691
1731517662063178800,12.3161787109375,-9.398552014189958,-2.6637317177534103,0.8614747907608747
1731517662073227000,12.32622705078125,-9.383485962483286,-2.7140754190683363,0.8685447291471063
1731517662083274000,12.33627392578125,-9.375041959264873,-2.742599502763152,0.8701272490981966
1731517662093321700,12.34632177734375,-9.374262791585922,-2.7484207562625405,0.8600978763844818
1731517662103368700,12.35636865234375,-9.378755426830052,-2.739699105146527,0.8386752952579408
1731517662113417000,12.3664169921875,-9.384285588428378,-2.7297560955420135,0.808703862299025
1731517662123464000,12.3764638671875,-9.387458373245597,-2.728658655694127,0.7748788226518779
1731517662133511000,12.386510986328124,-9.38689197153449,-2.73992677642256,0.7412479173373431
1731517662143558700,12.39655859375,-9.382323932966589,-2.762987918536365,0.7129393760893493
1731517662153606000,12.40660595703125,-9.37473040909767,-2.7944501015096903,0.689824311831221
1731517662163654000,12.41665380859375,-9.365266999703644,-2.8306732152745124,0.6704083943519741
1731517662173700900,12.426700927734375,-9.355207962504029,-2.8676249355748293,0.6536037553496659
1731517662183748900,12.436748779296876,-9.346437796071172,-2.8996149418145416,0.6377399773940443
1731517662193795800,12.4467958984375,-9.340871978637576,-2.9209812627092,0.6215851806025952
1731517662203842800,12.4568427734375,-9.338879343515634,-2.9305463789120316,0.6063152768868952
1731517662213890800,12.466890869140625,-9.339695336073637,-2.931242544482648,0.5901611011499539
1731517662223937800,12.476937744140624,-9.341229121512175,-2.9303651771262285,0.5698975903980433
1731517662233985800,12.48698583984375,-9.34084742871821,-2.936429007209837,0.5443728711823002
1731517662244032800,12.49703271484375,-9.336713689914346,-2.954521713261306,0.5166812562562525
1731517662254080800,12.507080810546874,-9.328616308176517,-2.98440101095736,0.49056711977999656
1731517662264128000,12.5171279296875,-9.31822409349978,-3.020668256124854,0.46545445196386426
1731517662274176000,12.527176025390625,-9.307394071927666,-3.0576831047892568,0.4397410417756065
1731517662284222700,12.53722265625,-9.297374782216549,-3.0915786523893476,0.4139375056184828
1731517662294269700,12.547269775390625,-9.288931363520026,-3.120080524252355,0.3888890986775979
1731517662304318000,12.55731787109375,-9.282935337975621,-3.140556033787131,0.3666070511775091
1731517662314365000,12.567364990234376,-9.279679551050066,-3.1522488096684214,0.34822263217046856
1731517662324413000,12.577412841796875,-9.279223623976112,-3.1552479914844036,0.33287129724901166
1731517662334460000,12.5874599609375,-9.280970175382494,-3.151567549405992,0.3187466180456802
1731517662344508000,12.5975078125,-9.284088015142082,-3.143920541784167,0.30308404348427426
1731517662354555000,12.607554931640625,-9.2869662009269,-3.137098586809635,0.2850544840632006
1731517662364603000,12.617602783203125,-9.288005480846762,-3.1357039175808428,0.26589034938793626
1731517662374649900,12.62764990234375,-9.285612448230385,-3.144427906784415,0.24568828649967908
1731517662384697000,12.637697021484374,-9.279929141896963,-3.162583448939025,0.22663893731050191
1731517662394744800,12.647744873046875,-9.274366247072816,-3.180109168757498,0.20837127655092624
1731517662404791800,12.657791748046876,-9.27280791171491,-3.1857480514273044,0.19087169582070782
1731517662414839800,12.66783984375,-9.277074921509623,-3.1741350627839564,0.17644313829997554
1731517662424887000,12.677886962890625,-9.286139102452992,-3.148072108505666,0.16627516083316876
1731517662434934800,12.687934814453126,-9.29807854657173,-3.113109223935008,0.15708311572642997
