time,seconds_elapsed,z,y,x
1731517649771365000,0.024365234375,0.3000330626964569,-0.03491617366671562,0.9317055940628052
1731517649781413400,0.034413330078125,0.30569466948509216,-0.008224906399846077,0.9822193384170532
1731517649791460400,0.04446044921875,0.3013119101524353,-0.021620873361825943,1.093794345855713
1731517649801508000,0.054508056640625,0.28999853134155273,0.009108543395996094,1.2407166957855225
1731517649811555000,0.06455517578125,0.28519925475120544,0.1474592238664627,1.3733469247817993
1731517649821603300,0.074603271484375,0.3177790343761444,0.09056957811117172,1.4010707139968872
1731517649831650300,0.084650390625,0.4412040412425995,-0.12415816634893417,1.4115235805511475
1731517649841698000,0.094697998046875,0.6333452463150024,-0.3004743456840515,1.477460503578186
1731517649851745000,0.1047451171875,0.8076872229576111,-0.3280348777770996,1.5945924520492554
1731517649861793300,0.114793212890625,0.9061354994773865,-0.16263844072818756,1.6286723613739014
1731517649871840500,0.124840576171875,0.8799962997436523,0.035469043999910355,1.4809705018997192
1731517649881888500,0.134888427734375,0.812333881855011,0.23676353693008423,1.2613228559494019
1731517649891935200,0.144935302734375,0.8151115775108337,0.6256460547447205,1.0542315244674683
1731517649901983500,0.1549833984375,0.8806660771369934,0.716012716293335,0.8370501399040222
1731517649912030500,0.165030517578125,0.9482539296150208,0.3545767366886139,0.7055107951164246
1731517649922077400,0.175077392578125,1.047994613647461,-0.31415578722953796,0.7912887930870056
1731517649932125400,0.18512548828125,1.1227819919586182,-1.043365240097046,1.0989502668380737
1731517649942172400,0.19517236328125,1.103205919265747,-1.6248043775558472,1.48096764087677
1731517649952220400,0.205220458984375,1.1051524877548218,-1.7156182527542114,1.757939338684082
1731517649962267400,0.215267333984375,1.1265474557876587,-1.4883395433425903,1.7603400945663452
1731517649972315400,0.2253154296875,1.1010314226150513,-1.2272567749023438,1.5169357061386108
1731517649982362600,0.235362548828125,0.9136141538619995,-1.0055854320526123,1.1744418144226074
1731517649992410400,0.245410400390625,0.7903242111206055,-0.5448552966117859,0.8279749155044556
1731517650002457300,0.255457275390625,0.7805759906768799,-0.12586471438407898,0.47608718276023865
1731517650012505300,0.26550537109375,0.7415838241577148,0.10279322415590286,0.17148946225643158
1731517650022552600,0.275552490234375,0.670964241027832,0.0793861672282219,-0.008577508851885796
1731517650032600300,0.285600341796875,0.6573368906974792,-0.18051092326641083,-0.020198745653033257
1731517650042647300,0.295647216796875,0.6849610209465027,-0.6753989458084106,0.13015906512737274
1731517650052695600,0.305695556640625,0.6615808606147766,-1.0181927680969238,0.36731114983558655
1731517650062742500,0.315742431640625,0.6302839517593384,-1.0069702863693237,0.5370439887046814
1731517650072790300,0.325790283203125,0.5539830327033997,-0.7687044143676758,0.5346530079841614
1731517650082837200,0.335837158203125,0.40571901202201843,-0.5223358869552612,0.432199627161026
1731517650092885500,0.345885498046875,0.2530234754085541,-0.1945284754037857,0.3178834319114685
1731517650102932500,0.355932373046875,0.1718902736902237,-0.023934094235301018,0.19454099237918854
1731517650112980500,0.36598046875,0.19887927174568176,-0.03859000280499458,0.16425712406635284
1731517650123027200,0.376027099609375,0.2946705222129822,-0.1789761483669281,0.24406060576438904
1731517650133075500,0.386075439453125,0.38699936866760254,-0.4586709141731262,0.3251842260360718
1731517650143122400,0.396122314453125,0.3731655776500702,-0.9849660992622375,0.268125981092453
1731517650153170400,0.40617041015625,0.29761677980422974,-1.3115229606628418,0.17758357524871826
1731517650163217400,0.416217529296875,0.1784304529428482,-1.2200777530670166,0.14467541873455048
1731517650173265400,0.426265380859375,-0.000014647385796706658,-0.8761041164398193,0.0980469360947609
1731517650183312400,0.4363125,-0.17219680547714233,-0.3899051547050476,0.009382050484418869
1731517650193360400,0.4463603515625,-0.3373918831348419,0.01906823366880417,-0.10863140225410461
1731517650203407400,0.456407470703125,-0.5377180576324463,0.30680280923843384,-0.23013919591903687
1731517650213455400,0.466455322265625,-0.7740848064422607,0.40116047859191895,-0.2865545451641083
1731517650223502300,0.47650244140625,-0.8990682363510132,0.3471193313598633,-0.23701068758964539
1731517650233550300,0.48655029296875,-0.8401519656181335,0.17591510713100433,-0.16731148958206177
1731517650243597600,0.49659765625,-0.6272132992744446,-0.009874202311038971,-0.15161509811878204
1731517650253645300,0.506645263671875,-0.3832264840602875,-0.0647776648402214,-0.16148103773593903
1731517650263692300,0.5166923828125,-0.2282094657421112,0.10229281336069107,-0.2535577118396759
1731517650273740300,0.526740234375,-0.10490085184574127,0.37906715273857117,-0.4612981081008911
1731517650283787500,0.53678759765625,-0.03314170613884926,0.5084187388420105,-0.6893594861030579
1731517650293835500,0.54683544921875,-0.008696818724274635,0.5098374485969543,-0.7512308955192566
1731517650303882200,0.55688232421875,-0.05199475958943367,0.3991146385669708,-0.6565336585044861
1731517650313930500,0.566930419921875,-0.1463625431060791,0.1313742697238922,-0.5568336844444275
1731517650323977500,0.5769775390625,-0.22501793503761292,-0.19188448786735535,-0.44128313660621643
1731517650334025500,0.587025390625,-0.2274685800075531,-0.3906348645687103,-0.27672135829925537
1731517650344072400,0.597072509765625,-0.21429552137851715,-0.497541606426239,-0.12510012090206146
1731517650354120400,0.607120361328125,-0.18295437097549438,-0.40712809562683105,0.0046757119707763195
1731517650364167400,0.61716748046875,-0.09862803667783737,-0.1807279735803604,0.08081628382205963
1731517650374215400,0.62721533203125,0.06621097773313522,-0.0038693067617714405,0.13842685520648956
1731517650384262400,0.637262451171875,0.15084756910800934,0.04345639795064926,0.20112405717372894
1731517650394310400,0.647310302734375,0.14181172847747803,-0.0377468466758728,0.2468353509902954
1731517650404357400,0.657357421875,0.10967030376195908,-0.21810011565685272,0.2568006217479706
1731517650414405400,0.6674052734375,0.041839856654405594,-0.5065209865570068,0.2714988887310028
1731517650424452400,0.677452392578125,-0.023574568331241608,-1.0106784105300903,0.3426084816455841
1731517650434500400,0.687500244140625,-0.10363904386758804,-1.3325542211532593,0.5844994187355042
1731517650444547300,0.69754736328125,-0.19031508266925812,-1.4740787744522095,0.909017026424408
1731517650454595300,0.70759521484375,-0.17802299559116364,-1.5111342668533325,1.1077474355697632
1731517650464642300,0.717642333984375,-0.07741542905569077,-1.211539626121521,1.0859204530715942
1731517650474690600,0.727690673828125,0.05296840891242027,-0.628599226474762,0.8355726599693298
1731517650484737300,0.7377373046875,0.15028777718544006,-0.22646935284137726,0.5095053315162659
1731517650494785300,0.747785400390625,0.17882859706878662,-0.19043146073818207,0.24854589998722076
1731517650504832500,0.75783251953125,0.0961449071764946,-0.34170353412628174,0.04944424703717232
1731517650514879500,0.76787939453125,-0.010542655363678932,-0.5045313239097595,-0.12662798166275024
1731517650524927500,0.777927490234375,-0.03707626089453697,-0.40714192390441895,-0.24637621641159058
1731517650534974500,0.787974365234375,-0.036193691194057465,0.0019438412273302674,-0.2760086953639984
1731517650545022500,0.7980224609375,0.00863423477858305,0.2758355736732483,-0.29307687282562256
1731517650555069400,0.8080693359375,0.048166465014219284,0.3676677644252777,-0.3659822344779968
1731517650565117400,0.818117431640625,0.0279176514595747,0.31845226883888245,-0.5548160672187805
1731517650575164400,0.828164306640625,-0.08530424535274506,0.01799817569553852,-0.7028361558914185
1731517650585212400,0.83821240234375,-0.2558578848838806,-0.5833808779716492,-0.5916973948478699
1731517650595259400,0.84825927734375,-0.3836483359336853,-1.1150513887405396,-0.24301451444625854
1731517650605307400,0.858307373046875,-0.28300267457962036,-1.3548262119293213,0.1287079155445099
1731517650615354400,0.868354248046875,0.014546185731887817,-1.245680332183838,0.389352023601532
1731517650625402400,0.87840234375,0.28622668981552124,-0.945772647857666,0.5027675032615662
1731517650635449300,0.888449462890625,0.3943617045879364,-0.6533362865447998,0.5573101043701172
1731517650645497300,0.898497314453125,0.3561064600944519,-0.40331605076789856,0.5660548806190491
1731517650655544300,0.90854443359375,0.17252063751220703,-0.295429527759552,0.4727920591831207
1731517650665592300,0.91859228515625,-0.0665406808257103,-0.23831909894943237,0.28565624356269836
1731517650675639300,0.928639404296875,-0.24948573112487793,0.034078340977430344,0.030893467366695404
1731517650685687300,0.938687255859375,-0.32704922556877136,0.3517599105834961,-0.31128624081611633
1731517650695734500,0.948734619140625,-0.2686852514743805,0.5197382569313049,-0.590416431427002
1731517650705782500,0.958782470703125,-0.13148851692676544,0.41369304060935974,-0.5538999438285828
1731517650715829200,0.968829345703125,0.01906770095229149,0.1328296810388565,-0.176670104265213
1731517650725877200,0.978877197265625,0.1505833864212036,-0.021766282618045807,0.3251948654651642
1731517650735924500,0.988924560546875,0.23543888330459595,0.35830381512641907,0.6471990346908569
1731517650745972500,0.998972412109375,0.1258426159620285,0.4924507141113281,0.6562124490737915
1731517650756019500,1.00901953125,-0.11744646728038788,-0.08532288670539856,0.3019159138202667
1731517650766067500,1.0190673828125,-0.1268085390329361,-0.2699055075645447,0.1499633938074112
1731517650776114400,1.029114501953125,-0.20440959930419922,-0.24804948270320892,0.06678169220685959
1731517650786162400,1.039162353515625,-0.19781240820884705,-0.15216822922229767,0.04742557182908058
1731517650796209400,1.04920947265625,-0.020598486065864563,0.035585157573223114,0.0960138812661171
1731517650806257400,1.05925732421875,0.1548130214214325,0.18279963731765747,0.161128968000412
1731517650816304400,1.069304443359375,0.3145451545715332,0.35159531235694885,0.22384853661060333
1731517650826352400,1.079352294921875,0.35708996653556824,0.5088381767272949,0.2629866302013397
1731517650836399400,1.0893994140625,0.33306851983070374,0.5479280948638916,0.26159778237342834
1731517650846447400,1.099447265625,0.16904494166374207,0.46936696767807007,0.12181245535612106
1731517650856494300,1.109494384765625,-0.056961022317409515,0.3730795681476593,-0.06190171837806702
1731517650866542000,1.1195419921875,-0.08011187613010406,0.2555508017539978,-0.1390092819929123
1731517650876589000,1.129589111328125,-0.03435184806585312,0.15554805099964142,-0.1367485225200653
1731517650886636000,1.139635986328125,-0.02502812072634697,0.1262383610010147,-0.11183865368366241
1731517650896684000,1.14968408203125,0.09630043804645538,0.1465521603822708,-0.10173594951629639
1731517650906731000,1.15973095703125,0.2809877395629883,0.05163736268877983,-0.010017747059464455
1731517650916779000,1.169779052734375,0.3180546760559082,-0.0687849223613739,0.1030411645770073
1731517650926826000,1.179825927734375,0.27834028005599976,-0.029385052621364594,0.07936406135559082
1731517650936874000,1.1898740234375,0.2786113917827606,0.008799350820481777,-0.09347562491893768
1731517650946921200,1.199921142578125,0.21501536667346954,0.041970353573560715,-0.2678878903388977
1731517650956969000,1.209968994140625,0.17862167954444885,0.06143353506922722,-0.38408002257347107
1731517650967016000,1.220015869140625,0.188868448138237,0.04694460704922676,-0.4030230939388275
1731517650977064200,1.230064208984375,0.20432916283607483,0.04151175543665886,-0.3598250150680542
1731517650987111200,1.240111083984375,0.231641486287117,0.040770597755908966,-0.3291930854320526
1731517650997159000,1.250158935546875,0.23528575897216797,0.15094397962093353,-0.3961217701435089
1731517651007206000,1.260205810546875,0.19038273394107819,0.35480254888534546,-0.5889666080474854
1731517651017254100,1.270254150390625,0.08303656429052353,0.6334642767906189,-0.8600137829780579
1731517651027301000,1.280301025390625,-0.06995777785778046,0.923956036567688,-1.1573493480682373
1731517651037348900,1.290348876953125,-0.2535984516143799,0.8862209320068359,-1.3885152339935303
1731517651047395800,1.300395751953125,-0.4180142879486084,0.5998128652572632,-1.4532843828201294
1731517651057444000,1.310444091796875,-0.44634339213371277,0.28981077671051025,-1.365405559539795
1731517651067491000,1.320490966796875,-0.34011468291282654,0.10193967819213867,-1.2128746509552002
1731517651077539000,1.3305390625,-0.16637593507766724,0.11500168591737747,-1.076766848564148
1731517651087586000,1.3405859375,0.01121909823268652,0.30472713708877563,-0.9697828888893127
1731517651097634000,1.350634033203125,0.12573236227035522,0.7017202973365784,-0.8187174797058105
1731517651107681000,1.360680908203125,0.10735255479812622,1.2809489965438843,-0.721768856048584
1731517651117729000,1.37072900390625,0.10576211661100388,1.878762125968933,-0.6937936544418335
1731517651127776000,1.38077587890625,0.16481611132621765,2.243504524230957,-0.7521171569824219
1731517651137824000,1.390823974609375,0.18778294324874878,2.3188743591308594,-0.8052924871444702
1731517651147871000,1.40087109375,0.10579540580511093,2.0495431423187256,-0.7446632385253906
1731517651157919000,1.4109189453125,-0.05637672170996666,1.4894466400146484,-0.5309025049209595
1731517651167966200,1.42096630859375,-0.24431253969669342,0.6418854594230652,-0.2775285542011261
1731517651178013200,1.43101318359375,-0.41315802931785583,-0.23700828850269318,-0.13495275378227234
1731517651188061000,1.44106103515625,-0.4672638475894928,-0.7796305418014526,-0.17259468138217926
1731517651198108000,1.45110791015625,-0.408292680978775,-0.8589575886726379,-0.4156680405139923
1731517651208156200,1.46115625,-0.30897489190101624,-0.6506153345108032,-0.7721702456474304
1731517651218203100,1.471203125,-0.20823709666728973,-0.2487592250108719,-1.1392078399658203
1731517651228251000,1.4812509765625,-0.12928155064582825,0.26405268907546997,-1.4929777383804321
1731517651238297900,1.4912978515625,-0.10119585692882538,0.5980373024940491,-1.7686142921447754
1731517651248346000,1.50134619140625,-0.16809579730033875,0.4933849573135376,-1.8514719009399414
1731517651258393000,1.51139306640625,-0.3248968720436096,0.15606869757175446,-1.6459802389144897
1731517651268441000,1.521441162109375,-0.5059385299682617,-0.3117765188217163,-1.2494491338729858
1731517651278487800,1.53148779296875,-0.6363229155540466,-0.6638461351394653,-0.8405138850212097
1731517651288536000,1.5415361328125,-0.6582772135734558,-0.9516664743423462,-0.5768332481384277
1731517651298583000,1.5515830078125,-0.6246164441108704,-1.2033556699752808,-0.5537593364715576
1731517651308631000,1.561631103515625,-0.5517505407333374,-1.0336111783981323,-0.6369655728340149
1731517651318678000,1.571677978515625,-0.45735877752304077,-0.7338793277740479,-0.7879734635353088
1731517651328726000,1.58172607421875,-0.35983142256736755,-0.3084568977355957,-0.9107939004898071
1731517651338773000,1.59177294921875,-0.2733825445175171,0.1555778682231903,-0.9375128746032715
1731517651348821000,1.601821044921875,-0.19077394902706146,0.44245171546936035,-0.883086621761322
1731517651358868200,1.6118681640625,-0.11423256248235703,0.4879888594150543,-0.7345123291015625
1731517651368916000,1.621916015625,-0.06365647166967392,0.4299156963825226,-0.46845242381095886
1731517651378963000,1.631962890625,-0.10400176793336868,0.17617422342300415,-0.19822067022323608
1731517651389011000,1.642010986328125,-0.20046359300613403,-0.05717087909579277,0.001002680161036551
1731517651399058200,1.65205810546875,-0.27325576543807983,-0.16278386116027832,0.08583208173513412
1731517651409105200,1.662105224609375,-0.27082911133766174,-0.132402241230011,0.06753270328044891
1731517651419153000,1.67215283203125,-0.23691721260547638,-0.02497352659702301,-0.02094442956149578
1731517651429200000,1.682199951171875,-0.22848430275917053,0.11845207959413528,-0.12505406141281128
1731517651439248100,1.692248046875,-0.21810729801654816,0.24254180490970612,-0.21377646923065186
1731517651449295000,1.702295166015625,-0.15927940607070923,0.3474261462688446,-0.24951981008052826
1731517651459342800,1.7123427734375,-0.08617217093706131,0.36524561047554016,-0.2563430964946747
1731517651469389800,1.722389892578125,-0.02678314410150051,0.28618940711021423,-0.19717006385326385
1731517651479438000,1.73243798828125,0.013308880850672722,0.18305636942386627,-0.05778047442436218
1731517651489485000,1.742485107421875,0.023506924510002136,0.047332361340522766,0.08365841209888458
1731517651499533000,1.752532958984375,0.021264808252453804,-0.07671049237251282,0.1523759514093399
1731517651509580000,1.762580078125,0.006954312324523926,-0.09370704740285873,0.13546781241893768
1731517651519628000,1.7726279296875,-0.010096576064825058,-0.009186574257910252,0.06042259559035301
1731517651529675000,1.782675048828125,-0.014315822161734104,0.13303421437740326,-0.047994423657655716
1731517651539723000,1.792722900390625,0.007152185309678316,0.2581556439399719,-0.1668662130832672
1731517651549770200,1.802770263671875,0.04560024291276932,0.3444439172744751,-0.2543606460094452
1731517651559818000,1.81281787109375,0.0954785868525505,0.34768474102020264,-0.27661800384521484
1731517651569865000,1.822864990234375,0.1251954734325409,0.27777037024497986,-0.21529100835323334
1731517651579913200,1.832913330078125,0.12340395897626877,0.1785399168729782,-0.10719862580299377
1731517651589960200,1.842960205078125,0.10210666060447693,0.07802475988864899,-0.02370905689895153
1731517651600008000,1.853008056640625,0.08995705097913742,-0.0033622407354414463,0.03020610474050045
1731517651610055000,1.863054931640625,0.06807971745729446,-0.05275935307145119,0.057321347296237946
1731517651620103200,1.873103271484375,0.02809102274477482,-0.043541353195905685,0.0688251331448555
1731517651630150100,1.883150146484375,0.007062703371047974,0.014905712567269802,0.058165036141872406
1731517651640198000,1.893197998046875,0.023990022018551826,0.07387475669384003,0.0047119311057031155
1731517651650244900,1.903244873046875,0.046547528356313705,0.0960032269358635,-0.047207459807395935
1731517651660291800,1.913291748046875,0.055025968700647354,0.07802369445562363,-0.05582065507769585
1731517651670340000,1.923340087890625,0.05722600594162941,0.04346625134348869,-0.02781005948781967
1731517651680387000,1.933386962890625,0.059237491339445114,-0.011483018286526203,-0.00941933412104845
1731517651690434800,1.943434814453125,0.07663459330797195,-0.030042853206396103,-0.02189784124493599
1731517651700482000,1.95348193359375,0.09508790075778961,-0.02424435317516327,-0.055336758494377136
1731517651710530000,1.963530029296875,0.11395852267742157,-0.0025446503423154354,-0.08989393711090088
1731517651720577000,1.973576904296875,0.10758771002292633,0.053470149636268616,-0.0924372524023056
1731517651730625000,1.983625,0.02142033725976944,0.002502306131646037,-0.07311522215604782
1731517651740672000,1.993672119140625,-0.05043654143810272,0.08569332957267761,-0.014693724922835827
1731517651750720000,2.003719970703125,-0.05624649301171303,0.041550107300281525,-0.007711449172347784
1731517651760767000,2.01376708984375,-0.031026892364025116,-0.04585057869553566,-0.02171914465725422
1731517651770815200,2.023815185546875,0.006966030225157738,-0.07773527503013611,0.02238599956035614
1731517651780862200,2.0338623046875,0.04695179685950279,-0.08528773486614227,0.1087094321846962
1731517651790910000,2.043909912109375,0.06877932697534561,-0.058522164821624756,0.13983780145645142
1731517651800957000,2.05395703125,0.07516852021217346,-0.001356614287942648,0.069365493953228
1731517651811005200,2.064005126953125,0.06703336536884308,0.06692443788051605,-0.04886261373758316
1731517651821052200,2.07405224609375,0.036426182836294174,0.12664343416690826,-0.12128568440675735
1731517651831100000,2.084099853515625,-0.0018333201296627522,0.18043528497219086,-0.11529090255498886
1731517651841147000,2.09414697265625,-0.010161823593080044,0.1801910698413849,-0.07034873217344284
1731517651851195100,2.104195068359375,0.009895507246255875,0.10269229114055634,-0.007220895029604435
1731517651861243000,2.114242919921875,0.040045686066150665,0.02389547973871231,0.04884077608585358
1731517651871289900,2.124289794921875,0.051170509308576584,-0.00020186760229989886,0.07393254339694977
1731517651881337600,2.134337646484375,0.055451009422540665,0.014990401454269886,0.0652325302362442
1731517651891384800,2.144384765625,0.06025295332074165,0.03379817679524422,0.03819319233298302
1731517651901432800,2.154432861328125,0.06460162997245789,0.01576032117009163,0.018249310553073883
1731517651911479800,2.164479736328125,0.05297267064452171,-0.01565219648182392,0.016225041821599007
1731517651921527600,2.174527587890625,0.01792893372476101,-0.027162911370396614,0.02496367320418358
1731517651931574800,2.18457470703125,-0.03310202807188034,-0.003765709698200226,0.03600460663437843
1731517651941622800,2.194622802734375,-0.060561347752809525,0.03868427872657776,0.02851339988410473
1731517651951669800,2.204669677734375,-0.05257346108555794,0.06396353989839554,-0.010726680047810078
1731517651961717800,2.2147177734375,-0.028365861624479294,0.08007166534662247,-0.05505179986357689
1731517651971764700,2.2247646484375,-0.0062829297967255116,0.12207717448472977,-0.06962781399488449
1731517651981812700,2.234812744140625,0.009432383812963963,0.0867154523730278,-0.08009084314107895
1731517651991859700,2.244859619140625,0.004503138829022646,0.1474808007478714,-0.04042039439082146
1731517652001907700,2.25490771484375,0.025355158373713493,0.14945553243160248,0.0159510038793087
1731517652011954700,2.26495458984375,0.05124853923916817,0.07550221681594849,0.05036996304988861
1731517652022002700,2.275002685546875,0.07253305613994598,0.01793239451944828,0.06214113533496857
1731517652032049700,2.285049560546875,0.07166992872953415,-0.0145887965336442,0.05794186145067215
1731517652042098000,2.295097900390625,0.055750347673892975,0.01654275692999363,0.05979249253869057
1731517652052144600,2.30514453125,0.024882446974515915,0.015123026445508003,0.02966122329235077
1731517652062192600,2.315192626953125,-0.018434667959809303,0.003108441596850753,-0.0019020296167582273
1731517652072239600,2.325239501953125,-0.02105575054883957,0.0026019082870334387,-0.015279087238013744
1731517652082286800,2.335286865234375,-0.012476110830903053,-0.025128789246082306,-0.02646755985915661
1731517652092334800,2.3453349609375,-0.003961718175560236,-0.04225051775574684,-0.03057415410876274
1731517652102381800,2.3553818359375,0.02304060384631157,-0.047454334795475006,-0.007291468791663647
1731517652112429600,2.3654296875,0.05041204020380974,-0.02496686950325966,0.026798857375979424
1731517652122476800,2.375476806640625,0.057008955627679825,0.015118232928216457,0.049670882523059845
1731517652132524800,2.38552490234375,0.05889900401234627,0.060749899595975876,0.055395882576704025
1731517652142571800,2.39557177734375,0.06382451951503754,0.1131257563829422,0.0409274585545063
1731517652152619800,2.405619873046875,0.06252356618642807,0.14468368887901306,0.013487046584486961
1731517652162666800,2.415666748046875,0.05102456733584404,0.15145902335643768,0.0010833739070221782
1731517652172714800,2.42571484375,0.03827415034174919,0.09895241260528564,-0.007589210290461779
1731517652182761700,2.43576171875,0.020730579271912575,0.03154700621962547,-0.009253951720893383
1731517652192809700,2.445809814453125,0.009555155411362648,-0.010672884061932564,0.002808303339406848
1731517652202856700,2.455856689453125,0.01266732532531023,-0.015686551108956337,0.01770123280584812
1731517652212904700,2.46590478515625,0.00749067310243845,-0.012473447248339653,0.024562334641814232
1731517652222951700,2.47595166015625,0.007653392385691404,-0.012328305281698704,0.025592178106307983
1731517652232999700,2.485999755859375,0.026498451828956604,-0.01022813655436039,0.03207990527153015
1731517652243046700,2.496046630859375,0.03821929171681404,0.009743707254529,0.051125768572092056
1731517652253094700,2.5060947265625,0.034511104226112366,0.06322610378265381,0.063014917075634
1731517652263141600,2.5161416015625,0.024566063657402992,0.1004674881696701,0.04633048176765442
1731517652273188900,2.52618896484375,0.019047195091843605,0.10943834483623505,0.011667042039334774
1731517652283236900,2.53623681640625,0.00492125516757369,0.09691988676786423,-0.0013869742397218943
1731517652293283600,2.54628369140625,-0.010662231594324112,0.06411480158567429,0.012911537662148476
1731517652303331600,2.55633154296875,-0.01956544630229473,0.026445189490914345,0.03301680460572243
1731517652313378800,2.56637890625,-0.022582007572054863,-0.021136710420250893,0.04700266197323799
1731517652323426800,2.5764267578125,-0.024458738043904305,-0.022834476083517075,0.021818479523062706
1731517652333473800,2.586473876953125,-0.026023345068097115,0.00618306128308177,-0.018322281539440155
1731517652343521800,2.596521728515625,-0.02990410290658474,0.04962854087352753,-0.043721117079257965
1731517652353568800,2.60656884765625,-0.029948310926556587,0.05552344769239426,-0.044198352843523026
1731517652363616800,2.61661669921875,-0.016951553523540497,0.03098214976489544,-0.026741066947579384
1731517652373663700,2.626663818359375,0.003578755771741271,-0.00019734023953787982,0.005688245873898268
1731517652383711700,2.636711669921875,0.022478410974144936,-0.014318752102553844,0.044555485248565674
1731517652393758700,2.6467587890625,0.030882548540830612,-0.0026253440883010626,0.0605834536254406
1731517652403806700,2.656806640625,0.03436436504125595,0.016408801078796387,0.055641692131757736
1731517652413853700,2.666853759765625,0.026033731177449226,0.029578398913145065,0.05283977836370468
1731517652423901700,2.676901611328125,0.001868207473307848,0.04881467670202255,0.026860376819968224
1731517652433948700,2.68694873046875,-0.024390295147895813,0.0696997195482254,-0.0038304245099425316
1731517652443996700,2.69699658203125,-0.036611806601285934,0.07477384060621262,-0.04333655536174774
1731517652454043600,2.707043701171875,-0.04669133946299553,0.05348985642194748,-0.06960171461105347
1731517652464092000,2.717091796875,-0.045951779931783676,0.02382836677134037,-0.06800461560487747
1731517652474138600,2.727138671875,-0.03612231835722923,0.006132194772362709,-0.04550196975469589
1731517652484185600,2.737185546875,-0.045165881514549255,-0.010308830067515373,-0.01600213535130024
1731517652494233900,2.74723388671875,-0.041800711303949356,-0.0020684772171080112,0.01447028573602438
1731517652504280800,2.75728076171875,-0.015293735079467297,0.018324945122003555,0.02335246093571186
1731517652514328800,2.767328857421875,0.010234794579446316,0.01606924831867218,0.004634432960301638
1731517652524375600,2.77737548828125,0.015660984441637993,0.011812184937298298,-0.014359498396515846
1731517652534423800,2.787423828125,0.006013950332999229,0.020085027441382408,-0.016035690903663635
1731517652544470800,2.797470703125,-0.013337111100554466,0.03166605159640312,-0.011722436174750328
1731517652554518800,2.807518798828125,-0.02630617283284664,0.00965688843280077,-0.0023670175578445196
1731517652564565800,2.817565673828125,-0.029917951673269272,0.0035894084721803665,0.0038306908681988716
1731517652574613800,2.82761376953125,-0.027886757627129555,0.021503694355487823,-0.01444232277572155
1731517652584660700,2.83766064453125,-0.017977135255932808,0.04039962217211723,-0.030103307217359543
1731517652594708700,2.847708740234375,-0.007901598699390888,0.041493114084005356,-0.02888810634613037
1731517652604755700,2.857755615234375,-0.011804727837443352,0.0361580029129982,-0.015140070579946041
1731517652614803700,2.8678037109375,-0.006353769451379776,0.04007551446557045,-0.010310428217053413
1731517652624850700,2.8778505859375,0.006508233025670052,0.04899044707417488,-0.017422400414943695
1731517652634898700,2.887898681640625,0.005172924138605595,0.05535167083144188,-0.021923940628767014
1731517652644945700,2.897945556640625,-0.004679440520703793,0.048661280423402786,-0.014279869385063648
1731517652654993700,2.90799365234375,-0.02346963994204998,0.042269691824913025,0.0010908307740464807
1731517652665040600,2.91804052734375,-0.032640501856803894,0.02665557898581028,0.012966930866241455
1731517652675087600,2.928087646484375,-0.035538818687200546,0.010850250720977783,0.01738591492176056
1731517652685136000,2.938135986328125,-0.04388703033328056,-0.01715741492807865,0.007619303651154041
1731517652695182800,2.948182861328125,-0.05192072317004204,-0.031070834025740623,-0.007592938374727964
1731517652705230600,2.958230712890625,-0.05825531855225563,-0.0038898130878806114,-0.02159157767891884
1731517652715277600,2.968277587890625,-0.05313592404127121,0.020496219396591187,-0.031926240772008896
1731517652725325800,2.978325927734375,-0.049125202000141144,0.035518579185009,-0.035773444920778275
1731517652735372800,2.988372802734375,-0.031072165817022324,0.03803526610136032,-0.03941718116402626
1731517652745420800,2.9984208984375,-0.020369719713926315,0.042685944586992264,-0.02185123600065708
1731517652755467800,3.0084677734375,-0.0138966403901577,0.03512230142951012,0.004166249185800552
1731517652765515800,3.018515869140625,-0.006178800016641617,0.0371076874434948,0.03484293445944786
1731517652775562800,3.028562744140625,-0.0010780475568026304,0.04210031405091286,0.04691717401146889
1731517652785610800,3.03861083984375,0.0054389736615121365,0.05276680737733841,0.034767035394907
1731517652795657700,3.04865771484375,0.009333314374089241,0.07056018710136414,0.005285309627652168
1731517652805705700,3.058705810546875,-0.006473345682024956,0.08091322332620621,-0.0002511360798962414
1731517652815752700,3.068752685546875,-0.03080371953547001,0.08422459661960602,0.0051801144145429134
1731517652825800700,3.07880078125,-0.052443765103816986,0.06662909686565399,0.0121291009709239
1731517652835847700,3.08884765625,-0.042275551706552505,0.009799634106457233,0.008596683852374554
1731517652845895000,3.09889501953125,-0.053403571248054504,-0.02708568051457405,-0.006585464812815189
1731517652855942700,3.108942626953125,-0.04616669565439224,-0.02082006074488163,-0.015573899261653423
1731517652865989000,3.118989013671875,-0.04536588490009308,0.022130070254206657,-0.03618037328124046
1731517652876037000,3.129037109375,-0.046063896268606186,0.10779144614934921,-0.05576632544398308
1731517652886084000,3.139083984375,-0.03617451712489128,0.15907487273216248,-0.06445702165365219
1731517652896132000,3.149132080078125,-0.012105931527912617,0.15222787857055664,-0.04891960695385933
1731517652906179000,3.159178955078125,-0.0017606157343834639,0.10225473344326019,-0.029349099844694138
1731517652916227000,3.16922705078125,-0.001008805469609797,0.045393578708171844,-0.018373414874076843
1731517652926274000,3.179274169921875,-0.005372661165893078,0.008654474280774593,-0.03773699328303337
1731517652936322300,3.189322265625,-0.013660418801009655,0.0007938882918097079,-0.07081291824579239
1731517652946369300,3.199369384765625,-0.039513055235147476,0.0324343740940094,-0.09679871797561646
1731517652956417000,3.2094169921875,-0.05886092036962509,0.07129602134227753,-0.1142171174287796
1731517652966464000,3.219464111328125,-0.0444183312356472,0.07519541680812836,-0.1067216545343399
1731517652976512300,3.22951220703125,-0.0008053398923948407,0.02780180424451828,-0.09393608570098877
1731517652986559200,3.239559326171875,0.030885478481650352,-0.045466016978025436,-0.09197360277175903
1731517652996607000,3.24960693359375,0.05168210342526436,-0.08918287605047226,-0.1070348396897316
1731517653006654000,3.259654052734375,0.05463208630681038,-0.09754785895347595,-0.13031965494155884
1731517653016702200,3.2697021484375,0.0353662446141243,-0.06651537865400314,-0.1339985430240631
1731517653026749200,3.279749267578125,0.013314473442733288,-0.01829964481294155,-0.12006382644176483
1731517653036796200,3.289796142578125,0.0009765811264514923,0.017945976927876472,-0.11279898881912231
1731517653046844000,3.299843994140625,0.002867691917344928,0.05534554645419121,-0.12259702384471893
1731517653056891100,3.30989111328125,0.005119927227497101,0.08430955559015274,-0.11151400953531265
1731517653066939100,3.319939208984375,-0.004187021870166063,0.08096569031476974,-0.07418981194496155
1731517653076986000,3.329986083984375,-0.015687083825469017,0.02797331102192402,-0.035475168377161026
1731517653087034000,3.3400341796875,-0.02321743778884411,-0.030062295496463776,-0.011483018286526203
1731517653097081000,3.3500810546875,-0.03275661543011665,-0.06270758807659149,0.0010375675046816468
1731517653107129000,3.360129150390625,-0.0422838069498539,-0.06569166481494904,-0.0037768951151520014
1731517653117176000,3.370176025390625,-0.04487346485257149,-0.05416923016309738,-0.02828729711472988
1731517653127224300,3.380224365234375,-0.04326917603611946,-0.04631609842181206,-0.054494135081768036
1731517653137271000,3.39027099609375,-0.02804228663444519,-0.0304548442363739,-0.06819343566894531
1731517653147319000,3.400319091796875,-0.021108213812112808,0.0011448930017650127,-0.054858189076185226
1731517653157366000,3.410365966796875,-0.011991681531071663,0.0419599674642086,-0.017138240858912468
1731517653167414300,3.420414306640625,0.015478026121854782,0.066610187292099,0.02316870167851448
1731517653177461200,3.430461181640625,0.032163795083761215,0.03413133695721626,0.04944371432065964
1731517653187509000,3.440509033203125,0.03899000957608223,-0.01672331988811493,0.07832010835409164
1731517653197556000,3.450555908203125,0.031191742047667503,-0.0468740314245224,0.126102015376091
1731517653207604200,3.460604248046875,0.01293151080608368,-0.03481736779212952,0.1657133400440216
1731517653217651200,3.470651123046875,-0.0020999026019126177,-0.00529463030397892,0.17526689171791077
1731517653227698200,3.4806982421875,0.0020809939596801996,0.002895388752222061,0.15280365943908691
1731517653237746000,3.490745849609375,0.005798766855150461,0.015969911590218544,0.12567323446273804
1731517653247793200,3.500793212890625,0.0011523497523739934,-0.0159456767141819,0.08839777112007141
1731517653257841200,3.510841064453125,-0.019151857122778893,-0.03417980670928955,0.05380091443657875
1731517653267888000,3.52088818359375,-0.03592737391591072,-0.043589022010564804,0.020964404568076134
1731517653277936000,3.53093603515625,-0.037154026329517365,-0.041130393743515015,-0.0003736414946615696
1731517653287983000,3.540983154296875,-0.02948012761771679,-0.008805209770798683,-0.007537811063230038
1731517653298031000,3.551031005859375,-0.016324911266565323,0.026344522833824158,0.0023963123094290495
1731517653308078000,3.561078125,-0.004559864290058613,0.05334950610995293,0.014208496548235416
1731517653318126000,3.5711259765625,0.009067530743777752,0.062361378222703934,0.016279904171824455
1731517653328173000,3.581173095703125,0.014790131710469723,0.04306544363498688,0.01835557073354721
1731517653338221000,3.591220947265625,0.008645419962704182,0.025670476257801056,0.011258247308433056
1731517653348268000,3.60126806640625,-0.016279371455311775,0.01691586710512638,0.00418515782803297
1731517653358316300,3.61131640625,-0.03395397216081619,0.012760802172124386,-0.01176185067743063
1731517653368363300,3.62136328125,-0.03768745809793472,0.0012948289513587952,-0.034745197743177414
1731517653378411000,3.631410888671875,-0.03146045282483101,0.003829092951491475,-0.05140353739261627
1731517653388458000,3.6414580078125,-0.015329155139625072,0.025134380906820297,-0.054360710084438324
1731517653398505200,3.651505126953125,-0.004126567859202623,0.03771036118268967,-0.03642458841204643
1731517653408553200,3.66155322265625,-0.004512992687523365,0.028296086937189102,-0.016686301678419113
1731517653418600200,3.67160009765625,0.0029555761720985174,0.003322559641674161,0.004867193289101124
1731517653428648000,3.68164794921875,0.018582738935947418,-0.016141152009367943,0.018511099740862846
1731517653438695200,3.691695068359375,0.027710456401109695,-0.004863198380917311,0.022464828565716743
1731517653448743200,3.7017431640625,0.025729065760970116,0.040333572775125504,0.0020394488237798214
1731517653458790100,3.7117900390625,0.017479391768574715,0.08272603899240494,-0.04711105301976204
1731517653468838100,3.721838134765625,0.00875034835189581,0.08782333135604858,-0.08808698505163193
1731517653478885000,3.731885009765625,0.011323494836688042,0.08301845192909241,-0.11300777643918991
1731517653488933000,3.74193310546875,0.02593892253935337,0.06438031792640686,-0.11520861089229584
1731517653498980000,3.75197998046875,0.04148459434509277,0.028956018388271332,-0.08617856353521347
1731517653509028000,3.762028076171875,0.06190997362136841,-0.020195815712213516,-0.02388615719974041
1731517653519075000,3.772074951171875,0.06940118223428726,-0.05420012027025223,0.04157460853457451
1731517653529123000,3.782123046875,0.06353183835744858,-0.052018724381923676,0.08890510350465775
1731517653539170000,3.792170166015625,0.05999755859375,-0.011007643304765224,0.08759349584579468
1731517653549217300,3.80221728515625,0.06233874335885048,0.03882116451859474,0.04482952132821083
1731517653559265000,3.81226513671875,0.0636463537812233,0.06535663455724716,0.006997988559305668
1731517653569312000,3.82231201171875,0.0648660808801651,0.041854504495859146,-0.011276090517640114
1731517653579360000,3.832360107421875,0.052379053086042404,-0.003612311789765954,0.0005462143453769386
1731517653589407200,3.8424072265625,0.01552463136613369,-0.04246383532881737,0.016519054770469666
1731517653599455200,3.852455322265625,-0.017581390216946602,-0.06579312682151794,0.015749135985970497
1731517653609502000,3.862501953125,-0.039866190403699875,-0.07674244791269302,0.005330849438905716
1731517653619550000,3.872550048828125,-0.05299557372927666,-0.06488791853189468,-0.010377805680036545
1731517653629597200,3.88259716796875,-0.06124285236001015,-0.015538745559751987,-0.009210809133946896
1731517653639645200,3.892645263671875,-0.05168183520436287,0.03815803676843643,-0.007788680959492922
1731517653649692200,3.902692138671875,-0.032283637672662735,0.03666213899850845,-0.005446697119623423
1731517653659740200,3.912740234375,-0.01769563928246498,0.01203802041709423,-0.0028304075822234154
1731517653669787100,3.922787109375,-0.008161523379385471,-0.00920495018362999,0.0037121803034096956
1731517653679835100,3.932835205078125,-0.014021010138094425,-0.005291967187076807,0.014435398392379284
1731517653689882000,3.942882080078125,-0.026883013546466827,0.00532525684684515,0.007733287289738655
1731517653699930000,3.95293017578125,-0.025590049102902412,0.0009989517275243998,-0.01110138650983572
1731517653709977000,3.96297705078125,-0.012656406499445438,-0.005478388629853725,-0.018805379047989845
1731517653720024000,3.973024169921875,0.0011254518758505583,-0.015975238755345345,-0.001888980157673359
1731517653730072000,3.983072021484375,0.0018293253378942609,-0.02419055812060833,0.02768062986433506
1731517653740119300,3.993119384765625,-0.003745469730347395,-0.008679774589836597,0.0520019493997097
1731517653750167000,4.0031669921875,-0.004607268609106541,0.013450028374791145,0.053110890090465546
1731517653760214000,4.013214111328125,0.0016314524691551924,0.004303401801735163,0.049010418355464935
1731517653770262000,4.023261962890625,0.0105328019708395,-0.014391988515853882,0.05655622109770775
1731517653780309200,4.033309326171875,0.00782410055398941,-0.02369733899831772,0.06513772159814835
1731517653790357000,4.04335693359375,-0.0013398362789303064,-0.01182363647967577,0.06654893606901169
1731517653800404000,4.053404052734375,-0.00028815402765758336,-0.001600293442606926,0.05124800652265549
1731517653810452200,4.0634521484375,0.01564580574631691,-0.013157613575458527,0.022540995851159096
1731517653820499200,4.073499267578125,0.03315635398030281,-0.01804611273109913,0.00896526500582695
1731517653830547200,4.083547119140625,0.03509513661265373,-0.01721201092004776,0.0034029872622340918
1731517653840594200,4.09359423828125,0.03299789875745773,-0.01506949681788683,-0.002031192881986499
1731517653850642200,4.10364208984375,0.017046362161636353,-0.009486978873610497,-0.01028699241578579
1731517653860689200,4.113689208984375,0.004722050856798887,-0.006992661859840155,-0.007285609841346741
1731517653870737000,4.12373681640625,-0.0037028591614216566,-0.011784753762185574,0.0054762582294642925
1731517653880784600,4.13378466796875,-0.0027630296535789967,-0.004731371998786926,0.011080081574618816
1731517653890831600,4.14383154296875,0.0027987160719931126,0.0036163064651191235,0.007043794728815556
1731517653900879600,4.153879638671875,0.011293401010334492,0.0016642092959955335,-0.003051982494071126
1731517653910926800,4.1639267578125,0.00941933412104845,-0.0049673281610012054,-0.01955106481909752
1731517653920974800,4.173974853515625,0.005428853910416365,-0.012241486459970474,-0.03314463794231415
1731517653931021600,4.184021484375,0.007059507537633181,-0.019701799377799034,-0.025949575006961823
1731517653941069800,4.19406982421875,0.014546185731887817,-0.014657505787909031,0.005646167788654566
1731517653951116800,4.20411669921875,0.02521933615207672,-0.0070741549134254456,0.03272652253508568
1731517653961164800,4.214164794921875,0.032647423446178436,-0.0038956720381975174,0.02298840694129467
1731517653971211800,4.224211669921875,0.04129604250192642,-0.0018628811230883002,-0.01381275150924921
1731517653981259800,4.234259765625,0.028005268424749374,0.01998462714254856,-0.028125643730163574
1731517653991306800,4.244306640625,0.005847502965480089,0.04272802174091339,-0.01949620246887207
1731517654001354800,4.254354736328125,-0.004339620936661959,0.060868941247463226,-0.01780855841934681
1731517654011401700,4.264401611328125,0.009010006673634052,0.08125703781843185,-0.03500645235180855
1731517654021448700,4.27444873046875,0.045691587030887604,0.09201647341251373,-0.05927637219429016
1731517654031496700,4.28449658203125,0.07034020870923996,0.06543014198541641,-0.07818348705768585
1731517654041543700,4.294543701171875,0.07791876792907715,0.03627624735236168,-0.06683602184057236
1731517654051591700,4.304591796875,0.07124169170856476,0.013892379589378834,-0.027126958593726158
1731517654061639000,4.314638916015625,0.05702679976820946,0.009697368368506432,0.018373148515820503
1731517654071686700,4.324686767578125,0.03814072906970978,-0.0049249837175011635,0.06101035699248314
1731517654081733600,4.334733642578125,0.020168118178844452,-0.015205318108201027,0.06400028616189957
1731517654091781600,4.34478173828125,0.017041567713022232,-0.014224476180970669,0.027895547449588776
1731517654101828900,4.354828857421875,0.0208890363574028,0.00021544973424170166,-0.00481286458671093
1731517654111876600,4.364876708984375,0.008107727393507957,0.025562617927789688,-0.025420138612389565
1731517654121923600,4.374923583984375,-0.005655222572386265,0.04754967615008354,-0.045825812965631485
1731517654131971800,4.384971923828125,-0.00609384523704648,0.03273850679397583,-0.06747730821371078
1731517654142018800,4.395018798828125,-0.003358246060088277,-0.01480424590408802,-0.07113462686538696
1731517654152066800,4.40506689453125,0.008097874000668526,-0.05373859405517578,-0.052870672196149826
1731517654162113800,4.41511376953125,0.02203472889959812,-0.07234077900648117,-0.013158146291971207
1731517654172161800,4.425161865234375,0.034811511635780334,-0.0467403419315815,0.02191169001162052
1731517654182208800,4.435208740234375,0.046294260770082474,-0.003209908027201891,0.01605832949280739
1731517654192255700,4.445255859375,0.04177834093570709,0.0557122640311718,-0.015790414065122604
1731517654202303700,4.4553037109375,0.0333331897854805,0.09456059336662292,-0.0275043286383152
1731517654212350700,4.465350830078125,0.02515195868909359,0.08016753941774368,-0.01830071024596691
1731517654222398700,4.475398681640625,0.01943361945450306,0.028659341856837273,-0.0009438242996111512
1731517654232445700,4.48544580078125,0.018879681825637817,-0.023750070482492447,0.017417339608073235
1731517654242493700,4.49549365234375,0.02021099627017975,-0.05782974511384964,0.026017485186457634
1731517654252541000,4.505541015625,0.013045494444668293,-0.06048145145177841,0.014732606709003448
1731517654262588700,4.515588623046875,-0.0033995250705629587,-0.04417438432574272,-0.014886537566781044
1731517654272635600,4.5256357421875,-0.017488712444901466,-0.00586587842553854,-0.06211663410067558
1731517654282684000,4.535683837890625,-0.020004866644740105,0.0358663871884346,-0.09025319665670395
1731517654292731000,4.54573095703125,-0.017038904130458832,0.055755406618118286,-0.06671138852834702
1731517654302778600,4.555778564453125,-0.011625763028860092,0.05608617141842842,-0.007121292874217033
1731517654312825600,4.56582568359375,0.002360359765589237,0.046615440398454666,0.04282815754413605
1731517654322873900,4.575873779296875,0.020307136699557304,0.023137543350458145,0.06229746341705322
1731517654332920800,4.5859208984375,0.03706241399049759,-0.0002671150432433933,0.05868621543049812
1731517654342967800,4.5959677734375,0.036260005086660385,-0.01270008273422718,0.038492266088724136
1731517654353015600,4.606015625,0.016092950478196144,-0.018681276589632034,0.002915096003562212
1731517654363062500,4.6160625,-0.012862535193562508,-0.02424168959259987,-0.02160782366991043
1731517654373110800,4.62611083984375,-0.02623400092124939,-0.028313929215073586,-0.033969949930906296
1731517654383157800,4.63615771484375,-0.025225728750228882,-0.02899889461696148,-0.032818667590618134
1731517654393205800,4.646205810546875,-0.015251124277710915,-0.0240174513310194,-0.014829812571406364
1731517654403252700,4.656252685546875,-0.0057593523524701595,-0.018822424113750458,0.011894476599991322
1731517654413300700,4.66630078125,0.0034562505315989256,-0.007675230037420988,0.03844725713133812
1731517654423347700,4.67634765625,0.011637480929493904,0.006945257540792227,0.054540738463401794
1731517654433395700,4.686395751953125,0.01432194747030735,0.002433596644550562,0.045034851878881454
1731517654443443000,4.69644287109375,0.01209581084549427,0.002298840554431081,0.029287047684192657
1731517654453490700,4.70649072265625,-0.004485561978071928,0.014270815066993237,0.009133310988545418
1731517654463537700,4.71653759765625,-0.02636449597775936,0.0201548021286726,-0.01677684858441353
1731517654473586000,4.7265859375,-0.04264466464519501,0.0070246197283267975,-0.038148183375597
1731517654483633000,4.7366328125,-0.04710652679204941,-0.015515043400228024,-0.034016821533441544
1731517654493679900,4.746679931640625,-0.0448732003569603,-0.03435717523097992,-0.011889682151377201
1731517654503727600,4.7567275390625,-0.03407594561576843,-0.03959081694483757,0.01889326423406601
1731517654513774600,4.766774658203125,-0.0173233300447464,-0.03322559595108032,0.0320705845952034
1731517654523822800,4.77682275390625,-0.002930542454123497,-0.01708577573299408,0.03461576625704765
1731517654533869800,4.786869873046875,-0.0029411951545625925,-0.005626460537314415,0.024575650691986084
1731517654543917600,4.79691748046875,-0.011227088049054146,0.006913832388818264,0.010963701643049717
1731517654553964500,4.806964599609375,-0.020800886675715446,0.012136025354266167,0.0033156354911625385
1731517654564012800,4.8170126953125,-0.027964523062109947,0.005083441734313965,0.011981295421719551
1731517654574059800,4.827059814453125,-0.023905599489808083,-0.011518704704940319,0.03484666347503662
1731517654584107500,4.837107421875,-0.009394566528499126,-0.023375896736979485,0.05030258372426033
1731517654594154800,4.84715478515625,0.004858937580138445,-0.03027481585741043,0.053705040365457535
1731517654604202800,4.85720263671875,0.005004878621548414,-0.030311299487948418,0.040345024317502975
1731517654614249700,4.867249755859375,-0.011591408401727676,-0.026393789798021317,0.023840617388486862
1731517654624297700,4.877297607421875,-0.022484535351395607,-0.013333914801478386,0.010586065240204334
1731517654634344700,4.8873447265625,-0.031132619827985764,-0.014025538228452206,-0.0008828379213809967
1731517654644391700,4.8973916015625,-0.039327699691057205,-0.017799504101276398,-0.015221829526126385
1731517654654439700,4.907439697265625,-0.04183293506503105,-0.013376791961491108,-0.02111380733549595
1731517654664486700,4.917486572265625,-0.045692652463912964,-0.007022489327937365,-0.030221818014979362
1731517654674535000,4.927534912109375,-0.04141401872038841,-0.011439874768257141,-0.03279389813542366
1731517654684581600,4.93758154296875,-0.031571775674819946,-0.014967231079936028,-0.026461701840162277
1731517654694629600,4.947629638671875,-0.021706361323595047,-0.029229789972305298,-0.0017707358347252011
1731517654704676600,4.957676513671875,-0.015677763149142265,-0.042806584388017654,0.02827717736363411
1731517654714724900,4.967724853515625,-0.01353604905307293,-0.028380773961544037,0.03919374197721481
1731517654724771800,4.977771728515625,-0.024764468893408775,0.0010042780777439475,0.02978532575070858
1731517654734819600,4.987819580078125,-0.026733608916401863,0.03293371573090553,-0.0020788635592907667
1731517654744866800,4.99786669921875,-0.030111296102404594,0.03865258768200874,-0.024828916415572166
1731517654754914800,5.007914794921875,-0.033610690385103226,0.02377110905945301,-0.030764037743210793
1731517654764961800,5.0179619140625,-0.03776788339018822,-0.00043542683124542236,-0.011573032476007938
1731517654775008800,5.0280087890625,-0.0367438979446888,-0.014568556100130081,0.011387943290174007
1731517654785056800,5.038056884765625,-0.038067758083343506,-0.013290238566696644,0.02514902874827385
1731517654795103700,5.048103759765625,-0.0362996831536293,-0.010320814326405525,0.007770038675516844
1731517654805151700,5.05815185546875,-0.03557823225855827,0.0014120079576969147,-0.03302399441599846
1731517654815198700,5.06819873046875,-0.035415515303611755,0.0005656554130837321,-0.06436993181705475
1731517654825246700,5.078246826171875,-0.032935578376054764,-0.014616759493947029,-0.06879238039255142
1731517654835293700,5.088293701171875,-0.02135322615504265,-0.028175977990031242,-0.05517324060201645
1731517654845341700,5.098341796875,-0.009728261269629002,-0.03921637684106827,-0.03533002734184265
1731517654855388700,5.108388671875,-0.007173757068812847,-0.05897064134478569,-0.044020455330610275
1731517654865436400,5.1184365234375,-0.024986842647194862,-0.04451260715723038,-0.0409301221370697
1731517654875483400,5.1284833984375,-0.016447681933641434,-0.01871643029153347,-0.0038514635525643826
1731517654885531100,5.13853125,-0.005151885095983744,0.008007326163351536,0.009974869899451733
1731517654895578000,5.148578125,0.004108725115656853,0.02478550747036934,0.007314638234674931
1731517654905626400,5.15862646484375,0.018626680597662926,0.008382299914956093,0.00592553336173296
1731517654915673300,5.16867333984375,0.019027220085263252,-0.02257268689572811,0.0047090016305446625
1731517654925720300,5.17872021484375,0.0014511564513668418,-0.037037644535303116,0.0034916705917567015
1731517654935768000,5.18876806640625,-0.027237746864557266,-0.012474246323108673,-0.007774299941956997
1731517654945815300,5.198815185546875,-0.05191965773701668,0.025532258674502373,-0.03413080424070358
1731517654955863300,5.20886328125,-0.05472183600068092,0.05289410799741745,-0.0635608658194542
1731517654965910300,5.21891015625,-0.04301990568637848,0.04590677097439766,-0.06780621409416199
1731517654975958300,5.228958251953125,-0.031366977840662,0.020801683887839317,-0.03965127095580101
1731517654986005200,5.239005126953125,-0.017071394249796867,0.008615326136350632,-0.0009478190331719816
1731517654996053200,5.24905322265625,-0.003382747294381261,0.003507383167743683,0.03345116600394249
1731517655006100200,5.259100341796875,0.011855593882501125,-0.005183043889701366,0.057142116129398346
1731517655016148200,5.269148193359375,0.009623066522181034,-0.011450793594121933,0.04972334951162338
1731517655026195200,5.2791953125,0.00282082031480968,-0.012212990783154964,0.01474805362522602
1731517655036243200,5.2892431640625,-0.004942560568451881,-0.013953099958598614,-0.031099330633878708
1731517655046290200,5.299290283203125,-0.007790545001626015,-0.01889326423406601,-0.0728536993265152
1731517655056337200,5.309337158203125,-0.011948272585868835,-0.0022330605424940586,-0.09169183671474457
1731517655066385200,5.31938525390625,-0.008222776465117931,0.022820627316832542,-0.0867181196808815
1731517655076432100,5.32943212890625,-0.007956193760037422,0.03142370283603668,-0.062696672976017
1731517655086480100,5.339480224609375,0.0003283677506260574,0.02901407517492771,-0.03503495082259178
1731517655096527400,5.34952734375,0.016689764335751534,0.010390322655439377,-0.012705675326287746
1731517655106575400,5.359575439453125,0.024328242987394333,-0.017253022640943527,-0.0019084211671724916
1731517655116622300,5.369622314453125,0.02671603299677372,-0.02791392244398594,-0.0016980315558612347
1731517655126670000,5.379670166015625,0.022334866225719452,-0.01299569383263588,-0.003920173272490501
1731517655136717300,5.38971728515625,0.017492175102233887,0.01302498858422041,-0.013291303999722004
1731517655146765300,5.399765380859375,0.026914704591035843,0.0386483259499073,-0.025911757722496986
1731517655156812300,5.409812255859375,0.03404691815376282,0.04102439805865288,-0.0237580593675375
1731517655166860300,5.4198603515625,0.03935832530260086,0.03963209688663483,0.000550475378986448
1731517655176907300,5.4299072265625,0.036501020193099976,0.04887619614601135,0.024582307785749435
1731517655186955300,5.439955322265625,0.022158298641443253,0.05639456585049629,0.026754382997751236
1731517655197002200,5.450002197265625,0.01296426821500063,0.05411117151379585,0.010028932243585587
1731517655207049200,5.46004931640625,0.010180732235312462,0.031500134617090225,-0.02317536063492298
1731517655217097200,5.47009716796875,0.009708020836114883,-0.007032343186438084,-0.0557711198925972
1731517655227144200,5.480144287109375,0.0036972665693610907,-0.036327116191387177,-0.08612396568059921
1731517655237192200,5.490192138671875,-0.0013070794520899653,-0.04511794447898865,-0.11601369082927704
1731517655247239200,5.5002392578125,-0.00440992834046483,-0.030348051339387894,-0.13229598104953766
1731517655257287200,5.510287109375,-0.0028810077346861362,-0.018869828432798386,-0.13598287105560303
1731517655267334100,5.520334228515625,0.010260893031954765,-0.0020362529903650284,-0.12722453474998474
1731517655277382100,5.530382080078125,0.025906432420015335,0.004538026638329029,-0.11477132141590118
1731517655287429400,5.540429443359375,0.050104979425668716,-0.009268865920603275,-0.10932382941246033
1731517655297477000,5.55047705078125,0.07525160908699036,-0.016286028549075127,-0.09851964563131332
1731517655307524000,5.560524169921875,0.08662118017673492,-0.023119434714317322,-0.09316163510084152
1731517655317572000,5.570572021484375,0.09652946889400482,-0.030179208144545555,-0.09990102797746658
1731517655327619300,5.580619384765625,0.10836642235517502,-0.03720835596323013,-0.10687984526157379
1731517655337666300,5.590666259765625,0.10784870386123657,-0.044314466416835785,-0.12179327756166458
1731517655347714300,5.60071435546875,0.10458233207464218,-0.03861796483397484,-0.1616019457578659
1731517655357761000,5.610760986328125,0.09707807749509811,-0.026335999369621277,-0.196804940700531
1731517655367809300,5.620809326171875,0.08678682893514633,-0.01429238636046648,-0.2075989991426468
1731517655377856300,5.630856201171875,0.08159792423248291,-0.031023429706692696,-0.1883414089679718
1731517655387904300,5.640904296875,0.09375472366809845,-0.04584631696343422,-0.13531947135925293
1731517655397951200,5.650951171875,0.11286183446645737,-0.05858661234378815,-0.05910699442028999
1731517655407999200,5.660999267578125,0.12597285211086273,-0.043903809040784836,0.0019739349372684956
1731517655418046200,5.671046142578125,0.1252700388431549,-0.01501277182251215,0.01900937780737877
1731517655428094200,5.68109423828125,0.10162676125764847,0.002939863596111536,-0.035167306661605835
1731517655438141400,5.691141357421875,0.06437525898218155,0.010520551353693008,-0.12220260500907898
1731517655448189200,5.701189208984375,0.016106797382235527,0.010261425748467445,-0.19756899774074554
1731517655458236200,5.711236083984375,-0.038288265466690063,-0.029832996428012848,-0.2746856212615967
1731517655468283100,5.721283203125,-0.054425690323114395,-0.05077662691473961,-0.3235011100769043
1731517655478331400,5.731331298828125,-0.031061779707670212,-0.049186985939741135,-0.32906603813171387
1731517655488378400,5.74137841796875,-0.004790760576725006,-0.015593606978654861,-0.2774478495121002
1731517655498426000,5.751426025390625,0.027906466275453568,0.02804468385875225,-0.17001619935035706
1731517655508473000,5.76147314453125,0.0689721405506134,0.06959398835897446,-0.05580148100852966
1731517655518521300,5.771521240234375,0.09913856536149979,0.10011834651231766,0.011020959354937077
1731517655528568300,5.781568359375,0.1141771748661995,0.12352566421031952,0.01842161826789379
1731517655538616000,5.791615966796875,0.11803609132766724,0.1346486210823059,-0.017847174778580666
1731517655548663000,5.8016630859375,0.11444348841905594,0.13273034989833832,-0.07308859378099442
1731517655558711300,5.811711181640625,0.1117909774184227,0.09722508490085602,-0.11291217058897018
1731517655568758300,5.82175830078125,0.10186697542667389,0.06520696729421616,-0.13699354231357574
1731517655578806300,5.83180615234375,0.09238479286432266,0.02979438006877899,-0.1525416076183319
1731517655588853200,5.841853271484375,0.08389889448881149,-0.00669252360239625,-0.1344185322523117
1731517655598900200,5.851900146484375,0.08184532821178436,-0.034748926758766174,-0.09524422883987427
1731517655608948200,5.8619482421875,0.08264508098363876,-0.042097385972738266,-0.0529569573700428
1731517655618995200,5.8719951171875,0.0932023823261261,-0.028009263798594475,-0.028241757303476334
1731517655629043500,5.88204345703125,0.09355738013982773,-0.004887965973466635,-0.01949593611061573
1731517655639090200,5.892090087890625,0.08595618605613708,0.008787366561591625,-0.027752535417675972
1731517655649138200,5.90213818359375,0.059604473412036896,0.005541505757719278,-0.05500519648194313
1731517655659185200,5.91218505859375,0.030418092384934425,-0.01709829270839691,-0.08498812466859818
1731517655669233400,5.9222333984375,0.019152656197547913,-0.03469645977020264,-0.08816554397344589
1731517655679280400,5.9322802734375,0.011567706242203712,-0.040350619703531265,-0.07377515733242035
1731517655689328000,5.942328125,0.0011459582019597292,0.0017214673571288586,-0.05835491791367531
1731517655699375000,5.952375,0.0046272422187030315,0.06792525202035904,-0.03912849351763725
1731517655709423400,5.96242333984375,0.023182816803455353,0.09923204779624939,-0.010922955349087715
1731517655719470300,5.97247021484375,0.04995078220963478,0.08523713052272797,0.0505308173596859
1731517655729517300,5.982517333984375,0.07460366189479828,0.040170855820178986,0.12877795100212097
1731517655739565000,5.99256494140625,0.09218452125787735,-0.02369707264006138,0.14972583949565887
1731517655749612300,6.0026123046875,0.09720911085605621,-0.10554560273885727,0.11539822816848755
1731517655759660300,6.012660400390625,0.07837789505720139,-0.15105928480625153,0.05518469214439392
1731517655769707300,6.022707275390625,0.0510738380253315,-0.1565621793270111,-0.007193997036665678
1731517655779755000,6.032755126953125,0.010191384702920914,-0.1397155523300171,-0.06898465752601624
1731517655789802200,6.04280224609375,-0.02629099227488041,-0.12033440172672272,-0.12243643403053284
1731517655799850200,6.052850341796875,-0.030050843954086304,-0.12972337007522583,-0.1406785547733307
1731517655809897200,6.062897216796875,-0.023008912801742554,-0.14571112394332886,-0.14616546034812927
1731517655819945200,6.0729453125,-0.00977646466344595,-0.1511077582836151,-0.1391030251979828
1731517655829992200,6.0829921875,0.0015251922886818647,-0.10425476729869843,-0.1239195466041565
1731517655840039200,6.0930390625,0.03470525145530701,-0.05441823601722717,-0.09407456964254379
1731517655850087200,6.103087158203125,0.07654936611652374,-0.029081186279654503,-0.04740612953901291
1731517655860134100,6.113134033203125,0.11117658764123917,-0.032758213579654694,0.014883342199027538
1731517655870182400,6.123182373046875,0.10842154920101166,-0.04502126947045326,0.062314506620168686
1731517655880229400,6.1332294921875,0.07542657852172852,-0.07145953923463821,0.07490140199661255
1731517655890277400,6.14327734375,0.027464380487799644,-0.09313979744911194,0.054125022143125534
1731517655900324400,6.153324462890625,-0.026620691642165184,-0.1296088546514511,0.02533864602446556
1731517655910372400,6.163372314453125,-0.071906678378582,-0.16614609956741333,0.026314694434404373
1731517655920419300,6.17341943359375,-0.09285563975572586,-0.16288825869560242,0.06334195286035538
1731517655930467300,6.18346728515625,-0.07831930369138718,-0.12969620525836945,0.11642993986606598
1731517655940514300,6.193514404296875,-0.04481647163629532,-0.08691199868917465,0.16738712787628174
1731517655950562300,6.203562255859375,-0.01565246284008026,-0.058148257434368134,0.19035875797271729
1731517655960609500,6.213609619140625,0.009572998620569706,-0.049363020807504654,0.18962585926055908
1731517655970656500,6.223656494140625,0.01296533364802599,-0.07008401304483414,0.18471631407737732
1731517655980704300,6.233704345703125,-0.010035856626927853,-0.10184913128614426,0.16698499023914337
1731517655990751200,6.243751220703125,-0.03423147276043892,-0.13201050460338593,0.1229080781340599
1731517656000799500,6.253799560546875,-0.0396488755941391,-0.1643199622631073,0.07740238308906555
1731517656010846500,6.263846435546875,-0.0234089195728302,-0.19670400023460388,0.07270403206348419
1731517656020894200,6.273894287109375,-0.0030192257836461067,-0.20103298127651215,0.09710577875375748
1731517656030941200,6.283941162109375,0.022461898624897003,-0.17546875774860382,0.09675184637308121
1731517656040989400,6.293989501953125,0.04897633194923401,-0.1772030144929886,0.09298959374427795
1731517656051036400,6.304036376953125,0.06195444613695145,-0.16899675130844116,0.09605622291564941
1731517656061084200,6.314084228515625,0.05914747714996338,-0.16403740644454956,0.06639180332422256
1731517656071131400,6.32413134765625,0.04813157767057419,-0.15051840245723724,0.02618526481091976
1731517656081179400,6.334179443359375,0.03664376586675644,-0.12649908661842346,-0.007634217385202646
1731517656091226400,6.344226318359375,0.028916070237755775,-0.11014194786548615,-0.02509842813014984
1731517656101273300,6.3542734375,0.026859045028686523,-0.12680348753929138,-0.023905599489808083
1731517656111321300,6.3643212890625,0.037048034369945526,-0.12636220455169678,-0.040101345628499985
1731517656121368300,6.374368408203125,0.05806862935423851,-0.14977911114692688,-0.07460127025842667
1731517656131416300,6.384416259765625,0.0681537538766861,-0.18729771673679352,-0.1285896599292755
1731517656141463300,6.39446337890625,0.058094993233680725,-0.23308038711547852,-0.21420229971408844
1731517656151511600,6.404511474609375,0.04391952231526375,-0.28314223885536194,-0.3140151798725128
1731517656161558300,6.414558349609375,0.023792680352926254,-0.3393325209617615,-0.4037091135978699
1731517656171606300,6.424606201171875,0.02094469591975212,-0.3744572103023529,-0.4388711154460907
1731517656181653200,6.4346533203125,0.044134970754384995,-0.36903610825538635,-0.4217275381088257
1731517656191701500,6.444701416015625,0.06776866316795349,-0.2888467013835907,-0.3862731456756592
1731517656201748500,6.45474853515625,0.08252070844173431,-0.20963604748249054,-0.31016185879707336
1731517656211795500,6.46479541015625,0.08242350071668625,-0.1229054182767868,-0.20095494389533997
1731517656221843200,6.47484326171875,0.0686405822634697,-0.0829116627573967,-0.11364054679870605
1731517656231890400,6.484890380859375,0.04048857092857361,-0.06003750488162041,-0.06479284167289734
1731517656241938400,6.4949384765625,0.011836951598525047,-0.026403112336993217,-0.024563400074839592
1731517656251985400,6.5049853515625,-0.012289423495531082,0.0027260116767138243,0.04957500845193863
1731517656262033400,6.515033447265625,-0.02978133037686348,0.030478546395897865,0.18388834595680237
1731517656272080400,6.525080322265625,-0.031006118282675743,0.07494375109672546,0.35005149245262146
1731517656282128400,6.53512841796875,-0.014797321520745754,0.11461632698774338,0.48663488030433655
1731517656292175400,6.54517529296875,0.005015531089156866,0.136173814535141,0.543502688407898
1731517656302223400,6.555223388671875,0.011199125088751316,0.1307569444179535,0.557242751121521
1731517656312270300,6.565270263671875,0.0075729647651314735,0.11573352664709091,0.5396581888198853
1731517656322317300,6.5753173828125,-0.016458867117762566,0.05728432908654213,0.5183315873146057
1731517656332365300,6.585365234375,-0.06490922719240189,0.001856223214417696,0.49317508935928345
1731517656342412500,6.59541259765625,-0.12520718574523926,-0.03702539578080177,0.43914994597435
1731517656352460300,6.605460205078125,-0.19030256569385529,-0.05233830586075783,0.3393586277961731
1731517656362507300,6.61550732421875,-0.24593307077884674,-0.048354748636484146,0.21610699594020844
1731517656372555300,6.62555517578125,-0.29575416445732117,-0.048038631677627563,0.09086279571056366
1731517656382602500,6.6356025390625,-0.32902103662490845,-0.026512833312153816,-0.03669702634215355
1731517656392650200,6.645650146484375,-0.3286660313606262,0.032774459570646286,-0.14469113945960999
1731517656402697200,6.655697265625,-0.294046550989151,0.0912201926112175,-0.2057797908782959
1731517656412745200,6.6657451171875,-0.22929629683494568,0.14134646952152252,-0.19995199143886566
1731517656422792400,6.67579248046875,-0.1575278341770172,0.1700228601694107,-0.1406545788049698
1731517656432840400,6.68584033203125,-0.09258266538381577,0.19128979742527008,-0.0465288870036602
1731517656442887400,6.695887451171875,-0.034035731106996536,0.19307439029216766,0.062494534999132156
1731517656452934100,6.70593408203125,0.0038013961166143417,0.19229407608509064,0.1212896779179573
1731517656462982400,6.715982421875,0.014432202093303204,0.2051669955253601,0.10522176325321198
1731517656473029400,6.726029296875,0.008013984188437462,0.20871859788894653,0.025900572538375854
1731517656483077400,6.736077392578125,-0.022896526381373405,0.20210996270179749,-0.058091532438993454
1731517656493124400,6.746124267578125,-0.07498609274625778,0.1846526712179184,-0.10752246528863907
1731517656503172400,6.75617236328125,-0.13138438761234283,0.1512552946805954,-0.12869539856910706
1731517656513219300,6.76621923828125,-0.17357765138149261,0.09755345433950424,-0.12590625882148743
1731517656523267300,6.776267333984375,-0.1838260293006897,0.05570134520530701,-0.11333108693361282
1731517656533314600,6.786314453125,-0.18237672746181488,0.04812784865498543,-0.10957469791173935
1731517656543362300,6.7963623046875,-0.18373706936836243,0.08669521659612656,-0.11016006022691727
1731517656553409300,6.8064091796875,-0.20725172758102417,0.14988750219345093,-0.11545522511005402
1731517656563457300,6.816457275390625,-0.23405857384204865,0.20018768310546875,-0.14217925071716309
1731517656573504500,6.82650439453125,-0.22893331944942474,0.21343611180782318,-0.16806331276893616
1731517656583551500,6.836551513671875,-0.181693896651268,0.2041478008031845,-0.17841900885105133
1731517656593599200,6.84659912109375,-0.1213621124625206,0.19207224249839783,-0.16126425564289093
1731517656603646200,6.856646240234375,-0.07529528439044952,0.1710585653781891,-0.12839259207248688
1731517656613694500,6.866694580078125,-0.0510738380253315,0.1270761936903,-0.09377629309892654
1731517656623741400,6.876741455078125,-0.02424914762377739,0.08771973103284836,-0.08308183401823044
1731517656633789200,6.8867890625,-0.005970540922135115,0.0686994343996048,-0.10647104680538177
1731517656643836200,6.896836181640625,0.003582484321668744,0.06770048290491104,-0.11646003276109695
1731517656653884400,6.906884521484375,0.01332645770162344,0.09725891053676605,-0.09533824026584625
1731517656663931400,6.916931396484375,0.026492593809962273,0.07344066351652145,-0.023331422358751297
1731517656673979400,6.9269794921875,0.030957650393247604,0.03761688247323036,0.07408035546541214
1731517656684026400,6.9370263671875,0.034516431391239166,-0.00018429075134918094,0.14307859539985657
1731517656694073300,6.9470732421875,0.05577804520726204,-0.010396447964012623,0.1826920509338379
1731517656704121300,6.957121337890625,0.09016797691583633,-0.008621984161436558,0.21781621873378754
1731517656714168300,6.967168212890625,0.11155049502849579,-0.0013334447285160422,0.23115891218185425
1731517656724216600,6.977216552734375,0.13952061533927917,0.052736181765794754,0.21813206374645233
1731517656734263300,6.98726318359375,0.14247912168502808,0.1277369260787964,0.18413814902305603
1731517656744311300,6.997311279296875,0.14847175776958466,0.24045388400554657,0.15286597609519958
1731517656754358300,7.007358154296875,0.17178906500339508,0.3295494019985199,0.09409560263156891
1731517656764406500,7.017406494140625,0.2176833301782608,0.4115806221961975,0.014692925848066807
1731517656774453500,7.02745361328125,0.2431551218032837,0.48166996240615845,-0.03359417989850044
1731517656784501200,7.037501220703125,0.22405706346035004,0.5041097402572632,-0.05092736333608627
1731517656794548200,7.04754833984375,0.1799420714378357,0.483348548412323,-0.04273095354437828
1731517656804595500,7.057595458984375,0.13602760434150696,0.40270963311195374,-0.04117859527468681
1731517656814643500,7.0676435546875,0.0845676138997078,0.2680591344833374,-0.0656953901052475
1731517656824690400,7.0776904296875,0.030337665230035782,0.12916117906570435,-0.09378588199615479
1731517656834738200,7.08773828125,-0.006594253238290548,0.04736059159040451,-0.08842946588993073
1731517656844785400,7.097785400390625,-0.013133645057678223,0.04265877977013588,-0.006193713750690222
1731517656854833400,7.10783349609375,0.004326305352151394,0.07199110090732574,0.1337769776582718
1731517656864880400,7.11788037109375,0.06339921057224274,0.06938999146223068,0.27583372592926025
1731517656874928000,7.12792822265625,0.17641177773475647,0.02171887829899788,0.36987897753715515
1731517656884975000,7.13797509765625,0.3166338801383972,-0.07912225276231766,0.39628368616104126
1731517656895023400,7.1480234375,0.44687363505363464,-0.19238701462745667,0.39316967129707336
1731517656905070300,7.1580703125,0.5244677662849426,-0.28038397431373596,0.38104695081710815
1731517656915117300,7.168117431640625,0.5276678204536438,-0.3382507562637329,0.3637332022190094
1731517656925165000,7.1781650390625,0.47635161876678467,-0.34781843423843384,0.31279200315475464
1731517656935212300,7.18821240234375,0.3804123103618622,-0.3220829665660858,0.21053114533424377
1731517656945260300,7.19826025390625,0.2797964811325073,-0.2804574966430664,0.1059940755367279
1731517656955307300,7.208307373046875,0.21620208024978638,-0.24502599239349365,0.04084490239620209
1731517656965355300,7.218355224609375,0.2115308940410614,-0.23236507177352905,0.06744242459535599
1731517656975402200,7.22840234375,0.23904293775558472,-0.21255967020988464,0.15179432928562164
1731517656985450200,7.2384501953125,0.27183204889297485,-0.17840968072414398,0.2359006702899933
1731517656995497200,7.248497314453125,0.29271629452705383,-0.1272687464952469,0.2695758044719696
1731517657005545500,7.25854541015625,0.3009188175201416,-0.08243948221206665,0.2528977692127228
1731517657015592400,7.268592529296875,0.296144038438797,-0.0471603199839592,0.22087565064430237
1731517657025639200,7.27863916015625,0.2829693853855133,-0.026086727157235146,0.18200814723968506
1731517657035687200,7.288687255859375,0.25423333048820496,-0.004564658273011446,0.11105621606111526
1731517657045734100,7.298734130859375,0.23596513271331787,0.008242749609053135,0.0850730836391449
1731517657055782400,7.308782470703125,0.21562017500400543,0.028308337554335594,0.0637534111738205
1731517657065829400,7.318829345703125,0.20770765841007233,0.021711153909564018,0.04730546474456787
1731517657075877000,7.328877197265625,0.22984305024147034,-0.015974706038832664,0.03891464322805405
1731517657085924400,7.33892431640625,0.25377050042152405,-0.08397878706455231,0.029829533770680428
1731517657095972400,7.348972412109375,0.2586834728717804,-0.16443660855293274,0.023445405066013336
1731517657106019300,7.359019287109375,0.24194099009037018,-0.21627956628799438,0.04013676568865776
1731517657116067000,7.369067138671875,0.2104848027229309,-0.2351749688386917,0.08166876435279846
1731517657126114300,7.3791142578125,0.18822050094604492,-0.23013226687908173,0.13054069876670837
1731517657136161300,7.389161376953125,0.19255134463310242,-0.1873760223388672,0.16996507346630096
1731517657146209300,7.399209228515625,0.20275257527828217,-0.12656140327453613,0.2018204778432846
1731517657156256300,7.40925634765625,0.18977046012878418,-0.054424893110990524,0.20826585590839386
1731517657166304300,7.41930419921875,0.14332573115825653,0.01203668862581253,0.17774176597595215
1731517657176351200,7.429351318359375,0.07783620804548264,0.07036817073822021,0.10694695264101028
1731517657186399200,7.439399169921875,0.011186341755092144,0.10699835419654846,-0.009209477342665195
1731517657196446200,7.4494462890625,-0.051178764551877975,0.10213169455528259,-0.1326211541891098
1731517657206494200,7.459494140625,-0.10940345376729965,0.04042119160294533,-0.2151906043291092
1731517657216541200,7.469541259765625,-0.16225095093250275,-0.05747927352786064,-0.2660015821456909
1731517657226589200,7.479589111328125,-0.21689635515213013,-0.1868700236082077,-0.29077857732772827
1731517657236636200,7.48963623046875,-0.2613575756549835,-0.2807163596153259,-0.2394983470439911
1731517657246683400,7.499683349609375,-0.29338181018829346,-0.33164504170417786,-0.11277821660041809
1731517657256731400,7.5097314453125,-0.3052709698677063,-0.3185766339302063,0.07552964240312576
1731517657266778000,7.519778076171875,-0.31089717149734497,-0.23814572393894196,0.2504093050956726
1731517657276826400,7.529826416015625,-0.31989118456840515,-0.1218356266617775,0.32440951466560364
1731517657286873300,7.539873291015625,-0.3082135021686554,-0.019178221002221107,0.2921554148197174
1731517657296921300,7.54992138671875,-0.29097750782966614,0.08357106149196625,0.2264174222946167
1731517657306968300,7.55996826171875,-0.2908395528793335,0.12377600371837616,0.1532718390226364
1731517657317016300,7.570016357421875,-0.29364013671875,0.11499183624982834,0.08999673277139664
1731517657327063300,7.580063232421875,-0.30692505836486816,0.07437916100025177,0.015722503885626793
1731517657337111300,7.590111328125,-0.3478916585445404,-0.012794358655810356,-0.0978836864233017
1731517657347158300,7.600158203125,-0.40099987387657166,-0.12029445171356201,-0.284264475107193
1731517657357205500,7.61020556640625,-0.44979724287986755,-0.2000337541103363,-0.4969589114189148
1731517657367253200,7.620253173828125,-0.47273531556129456,-0.19529812037944794,-0.5989603996276855
1731517657377300200,7.63030029296875,-0.4676918387413025,-0.07772382348775864,-0.5095750689506531
1731517657387348200,7.64034814453125,-0.4194188416004181,0.11035607010126114,-0.23517070710659027
1731517657397395500,7.6503955078125,-0.2975328862667084,0.2702037990093231,0.1414671093225479
1731517657407443200,7.660443115234375,-0.1340685933828354,0.3196602761745453,0.452077716588974
1731517657417490200,7.670490234375,0.03891650587320328,0.22459982335567474,0.591098964214325
1731517657427538200,7.6805380859375,0.17102794349193573,0.035825639963150024,0.5595775246620178
1731517657437585400,7.69058544921875,0.18429873883724213,-0.18273785710334778,0.38100701570510864
1731517657447633200,7.700633056640625,0.08246265351772308,-0.33349329233169556,0.07764685899019241
1731517657457680100,7.71068017578125,-0.052330050617456436,-0.3758753538131714,-0.24553519487380981
1731517657467727000,7.72072705078125,-0.17380987107753754,-0.34611427783966064,-0.4189392030239105
1731517657477775400,7.730775390625,-0.25289615988731384,-0.2803286015987396,-0.41356706619262695
1731517657487822300,7.740822265625,-0.27462464570999146,-0.21427340805530548,-0.25342002511024475
1731517657497870000,7.7508701171875,-0.2228786200284958,-0.11822198331356049,-0.004253334365785122
1731517657507917000,7.7609169921875,-0.14373239874839783,-0.029887856915593147,0.23010031878948212
1731517657517965300,7.77096533203125,-0.09349346160888672,0.042425487190485,0.3314509093761444
1731517657528012300,7.78101220703125,-0.1005266085267067,0.09990795701742172,0.27851152420043945
1731517657538060300,7.791060302734375,-0.1516513079404831,0.15640105307102203,0.12995639443397522
1731517657548107300,7.801107177734375,-0.22665470838546753,0.19298836588859558,-0.02161101996898651
1731517657558155300,7.8111552734375,-0.2901766896247864,0.18373601138591766,-0.1156858503818512
1731517657568202200,7.8212021484375,-0.3096105754375458,0.14896871149539948,-0.12782667577266693
1731517657578249200,7.831249267578125,-0.27858394384384155,0.10048826038837433,-0.05694743990898132
1731517657588297500,7.84129736328125,-0.21638236939907074,0.07537464797496796,0.05567125231027603
1731517657598344400,7.851344482421875,-0.14588609337806702,0.07369446009397507,0.1714543104171753
1731517657608392200,7.86139208984375,-0.09627673774957657,0.11479263007640839,0.2542695701122284
1731517657618439200,7.871439208984375,-0.08022452890872955,0.183598592877388,0.26043346524238586
1731517657628487400,7.8814873046875,-0.08462114632129669,0.26537173986434937,0.19873839616775513
1731517657638534400,7.891534423828125,-0.10534799098968506,0.32374078035354614,0.10795789211988449
1731517657648582100,7.90158203125,-0.13090156018733978,0.3282819986343384,0.037034183740615845
1731517657658629000,7.911629150390625,-0.13461719453334808,0.2694900631904602,0.016800284385681152
1731517657668677400,7.921677490234375,-0.10716480016708374,0.1775582730770111,0.032160867005586624
1731517657678724400,7.931724365234375,-0.06121249124407768,0.0956900417804718,0.05645528808236122
1731517657688771300,7.941771240234375,0.0031156321056187153,0.04560769721865654,0.03997404873371124
1731517657698819000,7.951819091796875,0.0642911046743393,0.04747137799859047,-0.011351457796990871
1731517657708866300,7.9618662109375,0.09351503849029541,0.0738593116402626,-0.09383808076381683
1731517657718914300,7.971914306640625,0.10266805440187454,0.10188082605600357,-0.1437385231256485
1731517657728961300,7.981961181640625,0.11020613461732864,0.1835930049419403,-0.15082547068595886
1731517657739009300,7.99200927734375,0.1148163303732872,0.24796852469444275,-0.1343839019536972
1731517657749056300,8.00205615234375,0.10875391215085983,0.2750464677810669,-0.08365308493375778
1731517657759104300,8.012104248046874,0.10264435410499573,0.3102356195449829,-0.027355192229151726
1731517657769151200,8.022151123046875,0.1203136295080185,0.3277837336063385,0.011975969187915325
1731517657779199500,8.032199462890626,0.15003237128257751,0.3579474985599518,0.024114390835165977
1731517657789246200,8.04224609375,0.19584514200687408,0.41157662868499756,0.020930316299200058
1731517657799293200,8.052293212890625,0.2606092095375061,0.4474986791610718,0.006945257540792227
1731517657809341200,8.062341064453125,0.3316434621810913,0.4624970555305481,-0.020842963829636574
1731517657819388400,8.072388427734374,0.39270734786987305,0.47036218643188477,-0.066947340965271
1731517657829436400,8.0824365234375,0.4190540015697479,0.46366754174232483,-0.11794554442167282
1731517657839483100,8.092483154296875,0.4276522696018219,0.4318225085735321,-0.17907920479774475
1731517657849531100,8.10253125,0.4165399670600891,0.39001646637916565,-0.25371190905570984
1731517657859578400,8.112578369140625,0.3676363229751587,0.3298114538192749,-0.3593035638332367
1731517657869627000,8.122626953125,0.31195202469825745,0.25316089391708374,-0.4553920328617096
1731517657879673600,8.132673583984374,0.2784119248390198,0.147606760263443,-0.4893196225166321
1731517657889721600,8.1427216796875,0.2734738886356354,0.06614279747009277,-0.4167335629463196
1731517657899768800,8.152768798828125,0.28584346175193787,0.03552603721618652,-0.20391717553138733
1731517657909815800,8.16281591796875,0.3656456172466278,0.11152093857526779,0.15330353379249573
1731517657919863800,8.17286376953125,0.48851028084754944,0.23804478347301483,0.5444888472557068
1731517657929910800,8.182910888671875,0.5893306732177734,0.33690986037254333,0.7754882574081421
1731517657939958800,8.192958740234374,0.6201876401901245,0.38026291131973267,0.8142157196998596
1731517657950005800,8.203005859375,0.6007934212684631,0.34550705552101135,0.6774855256080627
1731517657960053800,8.2130537109375,0.5306864976882935,0.23261593282222748,0.3971409797668457
1731517657970100700,8.223100830078126,0.41081708669662476,0.08789736777544022,0.061105165630578995
1731517657980148700,8.233148681640625,0.26341405510902405,-0.0662117749452591,-0.24737410247325897
1731517657990195700,8.24319580078125,0.1308957040309906,-0.18874089419841766,-0.41683292388916016
1731517658000242700,8.25324267578125,0.061952847987413406,-0.25370311737060547,-0.41050922870635986
1731517658010290700,8.263290771484375,0.056301090866327286,-0.2688157558441162,-0.2757018804550171
1731517658020338000,8.273337890625,0.12194588035345078,-0.20374274253845215,-0.06921928375959396
1731517658030385700,8.2833857421875,0.23107530176639557,-0.10410696268081665,0.12206625193357468
1731517658040432600,8.2934326171875,0.3305547535419464,-0.01715794764459133,0.23459786176681519
1731517658050481000,8.30348095703125,0.39131104946136475,0.03243863210082054,0.2606281340122223
1731517658060527900,8.31352783203125,0.41538068652153015,0.022837139666080475,0.2346966564655304
1731517658070575600,8.32357568359375,0.40862876176834106,-0.00815246906131506,0.1807817667722702
1731517658080622600,8.33362255859375,0.393497496843338,-0.07264917343854904,0.11204823851585388
1731517658090670800,8.3436708984375,0.3774665892124176,-0.16604329645633698,0.04267129674553871
1731517658100717800,8.3537177734375,0.37128326296806335,-0.2518865764141083,0.0013291836949065328
1731517658110764800,8.363764892578125,0.37895265221595764,-0.31653720140457153,0.020908210426568985
1731517658120812500,8.3738125,0.38911232352256775,-0.34051018953323364,0.10011062026023865
1731517658130859500,8.383859619140624,0.3883839547634125,-0.32565852999687195,0.17431135475635529
1731517658140907800,8.39390771484375,0.36433666944503784,-0.28054511547088623,0.20894202589988708
1731517658150954800,8.403954833984375,0.3291057348251343,-0.21306593716144562,0.20872658491134644
1731517658161002800,8.414002685546874,0.2925429046154022,-0.1501239836215973,0.18006937205791473
1731517658171049700,8.4240498046875,0.24571949243545532,-0.13288961350917816,0.12604741752147675
1731517658181097700,8.43409765625,0.19350022077560425,-0.16125839948654175,0.08193055540323257
1731517658191144700,8.444144775390624,0.1489705741405487,-0.2148931324481964,0.0495944507420063
1731517658201192700,8.454192626953125,0.12542156875133514,-0.28486368060112,0.04554857686161995
1731517658211240000,8.464239990234375,0.11296889930963516,-0.3589291274547577,0.05535593256354332
1731517658221286700,8.47428662109375,0.10601884126663208,-0.4310635030269623,0.05273644998669624
1731517658231334700,8.484334716796875,0.0942910835146904,-0.5030127763748169,0.011570902541279793
1731517658241381600,8.494381591796875,0.06736572086811066,-0.5678749084472656,-0.06834443658590317
1731517658251430000,8.504429931640624,0.026521354913711548,-0.6057266592979431,-0.17401067912578583
1731517658261476900,8.514476806640625,-0.03810344263911247,-0.6233884692192078,-0.27088209986686707
1731517658271524600,8.524524658203125,-0.11383894830942154,-0.5861425995826721,-0.33185383677482605
1731517658281571600,8.534571533203126,-0.1912146955728531,-0.5134444236755371,-0.32098573446273804
1731517658291619800,8.544619873046875,-0.2737378180027008,-0.4091995060443878,-0.2471006065607071
1731517658301666800,8.554666748046875,-0.3550877869129181,-0.2863350808620453,-0.1621207296848297
1731517658311713800,8.5647138671875,-0.4199932813644409,-0.1654621958732605,-0.12442155182361603
1731517658321761800,8.57476171875,-0.4496667683124542,-0.07815632224082947,-0.16508269309997559
1731517658331808800,8.584808837890625,-0.44174623489379883,-0.041605766862630844,-0.2614569067955017
1731517658341856800,8.594856689453126,-0.40482550859451294,-0.03417954221367836,-0.3550789952278137
1731517658351903700,8.60490380859375,-0.3610207736492157,-0.005618737079203129,-0.3834938704967499
1731517658361951700,8.61495166015625,-0.32913050055503845,0.028783444315195084,-0.36212384700775146
1731517658371998700,8.624998779296876,-0.32715627551078796,0.06157920882105827,-0.33868297934532166
1731517658382046700,8.635046630859375,-0.35226136445999146,0.09103110432624817,-0.3693404793739319
1731517658392093700,8.64509375,-0.38863322138786316,0.09265989810228348,-0.48605406284332275
1731517658402141700,8.6551416015625,-0.4102535843849182,0.060081977397203445,-0.6681141257286072
1731517658412188700,8.665188720703124,-0.40788576006889343,0.022821692749857903,-0.7651123404502869
1731517658422235600,8.675235595703125,-0.3810408115386963,0.06550364196300507,-0.6163303256034851
1731517658432283600,8.68528369140625,-0.3374328911304474,0.19297584891319275,-0.23496697843074799
1731517658442331000,8.695330810546874,-0.20779180526733398,0.3363223671913147,0.2598877549171448
1731517658452378600,8.705378662109375,-0.05656154453754425,0.4159761667251587,0.669165849685669
1731517658462425600,8.715425537109375,0.060682520270347595,0.3642836809158325,0.8870816230773926
1731517658472473600,8.7254736328125,0.09218665212392807,0.19494205713272095,0.8827494978904724
1731517658482520800,8.735520751953125,0.01714862696826458,-0.04992468282580376,0.6599254608154297
1731517658492568800,8.74556884765625,-0.13670484721660614,-0.2720421552658081,0.2770792841911316
1731517658502615800,8.75561572265625,-0.3292892277240753,-0.37163692712783813,-0.1316981017589569
1731517658512662500,8.76566259765625,-0.4856034517288208,-0.34422022104263306,-0.3883674442768097
1731517658522710800,8.775710693359375,-0.5576661825180054,-0.2846527695655823,-0.4474693834781647
1731517658532757800,8.7857578125,-0.5597400069236755,-0.21380417048931122,-0.33418142795562744
1731517658542805800,8.7958056640625,-0.4965445101261139,-0.10954353958368301,-0.08808937668800354
1731517658552852700,8.805852783203125,-0.4053352475166321,-0.01011069118976593,0.1766301691532135
1731517658562900700,8.815900634765624,-0.3376305103302002,0.04958353191614151,0.3352317810058594
1731517658572947700,8.82594775390625,-0.3119557499885559,0.095291368663311,0.33198192715644836
1731517658582995700,8.83599560546875,-0.31090036034584045,0.11282321810722351,0.241451233625412
1731517658593043000,8.84604296875,-0.34750205278396606,0.10486330091953278,0.15348516404628754
1731517658603090700,8.856090576171875,-0.3852880299091339,0.07229337096214294,0.12321940064430237
1731517658613137700,8.8661376953125,-0.3854387700557709,0.03714177757501602,0.16928623616695404
1731517658623184600,8.8761845703125,-0.3449118435382843,0.011519236490130424,0.28199705481529236
1731517658633233000,8.88623291015625,-0.28549724817276,0.005255482159554958,0.4188220202922821
1731517658643280000,8.89627978515625,-0.22682355344295502,0.040649693459272385,0.5238717198371887
1731517658653327600,8.90632763671875,-0.18236315250396729,0.1388779878616333,0.5607756972312927
1731517658663374600,8.91637451171875,-0.1608506739139557,0.24812032282352448,0.5061923265457153
1731517658673422800,8.9264228515625,-0.16875998675823212,0.32088401913642883,0.3983457684516907
1731517658683469800,8.9364697265625,-0.20213818550109863,0.3292924165725708,0.2872152626514435
1731517658693517600,8.946517578125,-0.2676903009414673,0.27482038736343384,0.15731266140937805
1731517658703564500,8.956564453125,-0.3243698179721832,0.15312457084655762,0.047259390354156494
1731517658713611800,8.96661181640625,-0.3473110795021057,0.027169035747647285,0.003990214318037033
1731517658723659800,8.97665966796875,-0.3252212405204773,-0.0796373039484024,-0.007247793022543192
1731517658733706800,8.986706787109375,-0.27520492672920227,-0.12200100719928741,-0.011408715508878231
1731517658743754800,8.996754638671876,-0.22070547938346863,-0.13109090924263,-0.0400928258895874
1731517658753801700,9.0068017578125,-0.15408436954021454,-0.12421489506959915,-0.09595795720815659
1731517658763849700,9.016849609375,-0.07896805554628372,-0.09995802491903305,-0.13887719810009003
1731517658773896700,9.026896728515625,-0.019340408965945244,-0.07086298614740372,-0.18797096610069275
1731517658783945000,9.036945068359374,0.02263527177274227,-0.03670315444469452,-0.23766662180423737
1731517658793991700,9.04699169921875,0.046966977417469025,0.021502895280718803,-0.29436665773391724
1731517658804039700,9.057039794921875,0.05768779665231705,0.08072201162576675,-0.3515346050262451
1731517658814086700,9.067086669921874,0.07284704595804214,0.16477563977241516,-0.3455536663532257
1731517658824133600,9.077133544921875,0.09905175119638443,0.23187637329101562,-0.2811749577522278
1731517658834182000,9.087181884765625,0.154890775680542,0.25771117210388184,-0.1852944940328598
1731517658844228900,9.097228759765626,0.22427518665790558,0.29030027985572815,-0.11646775901317596
1731517658854276600,9.107276611328125,0.2640537619590759,0.34852734208106995,-0.12014052271842957
1731517658864323600,9.117323486328125,0.28184500336647034,0.4322720468044281,-0.20855188369750977
1731517658874371600,9.12737158203125,0.2783317565917969,0.4700298309326172,-0.35865136981010437
1731517658884418600,9.13741845703125,0.25122663378715515,0.46175432205200195,-0.5291069746017456
1731517658894466600,9.147466552734375,0.21879972517490387,0.3874744772911072,-0.664534866809845
1731517658904513500,9.157513427734376,0.17817053198814392,0.1969365030527115,-0.725496232509613
1731517658914560500,9.167560546875,0.15627562999725342,-0.05411862954497337,-0.7238231897354126
1731517658924608800,9.17760888671875,0.16642573475837708,-0.27236413955688477,-0.6312296390533447
1731517658934655700,9.18765576171875,0.1983245462179184,-0.3151124119758606,-0.3999316990375519
1731517658944703500,9.197703369140624,0.23967863619327545,-0.18389473855495453,-0.056116264313459396
1731517658954750500,9.20775048828125,0.2979579269886017,0.020351877436041832,0.30652159452438354
1731517658964798700,9.217798828125,0.3527601957321167,0.15694034099578857,0.5042769908905029
1731517658974845700,9.227845703125,0.39418378472328186,0.19775888323783875,0.4943178594112396
1731517658984893400,9.2378935546875,0.3417205810546875,0.08536070585250854,0.3224470317363739
1731517658994940400,9.2479404296875,0.23695050179958344,-0.16212205588817596,0.12769590318202972
1731517659004987600,9.257987548828124,0.24643880128860474,-0.2947293817996979,-0.030478013679385185
1731517659015035600,9.26803564453125,0.1874295473098755,-0.39553216099739075,-0.18152664601802826
1731517659025082600,9.27808251953125,0.17151743173599243,-0.5051257610321045,-0.21591684222221375
1731517659035130600,9.288130615234374,0.18201588094234467,-0.4816499948501587,-0.11939989775419235
1731517659045177600,9.298177490234375,0.18460233509540558,-0.4219576418399811,0.026080070063471794
1731517659055225600,9.3082255859375,0.1996462643146515,-0.3009502589702606,0.1566987931728363
1731517659065272600,9.3182724609375,0.24205657839775085,-0.16183097660541534,0.23483142256736755
1731517659075320800,9.32832080078125,0.2635621428489685,-0.0773208886384964,0.24451839923858643
1731517659085367600,9.338367431640625,0.2602315843105316,-0.012937902472913265,0.2240794450044632
1731517659095415600,9.34841552734375,0.24515196681022644,0.007013967260718346,0.20872284471988678
1731517659105462500,9.358462646484375,0.2208932340145111,-0.014124074950814247,0.21613815426826477
1731517659115509500,9.368509521484375,0.19992083311080933,-0.05668191984295845,0.23155173659324646
1731517659125557800,9.378557861328124,0.1831815391778946,-0.10880398005247116,0.23752707242965698
1731517659135604700,9.388604736328125,0.1853637397289276,-0.16999143362045288,0.22536733746528625
1731517659145652500,9.398652587890625,0.20332515239715576,-0.19719456136226654,0.21950678527355194
1731517659155699500,9.408699462890626,0.22232361137866974,-0.19694875180721283,0.22160935401916504
1731517659165747700,9.418747802734375,0.248863086104393,-0.1692233830690384,0.23587830364704132
1731517659175794700,9.428794677734375,0.27402275800704956,-0.12348411977291107,0.2463778257369995
1731517659185842400,9.438842529296876,0.2878752052783966,-0.0816463902592659,0.2509206533432007
1731517659195889700,9.4488896484375,0.28311240673065186,-0.03425224497914314,0.24432611465454102
1731517659205936600,9.4589365234375,0.26145824790000916,-0.0156487338244915,0.20251423120498657
1731517659215984600,9.468984619140626,0.21706600487232208,-0.02118784375488758,0.13837943971157074
1731517659226031600,9.479031494140624,0.1473013013601303,-0.060678526759147644,0.0659870058298111
1731517659236079600,9.48907958984375,0.06088545545935631,-0.14512762427330017,0.0006593986763618886
1731517659246126600,9.499126708984376,-0.022187327966094017,-0.22212468087673187,-0.054429952055215836
1731517659256174600,9.509174560546874,-0.07934489101171494,-0.31171634793281555,-0.08368664234876633
1731517659266221600,9.5192216796875,-0.13250984251499176,-0.4005676507949829,-0.09086146205663681
1731517659276269600,9.52926953125,-0.16149061918258667,-0.42051634192466736,-0.10990332812070847
1731517659286316500,9.539316650390624,-0.17440375685691833,-0.39026281237602234,-0.14613696932792664
1731517659296364500,9.549364501953125,-0.16139236092567444,-0.33947792649269104,-0.17729276418685913
1731517659306411500,9.55941162109375,-0.14796309173107147,-0.29528436064720154,-0.22662754356861115
1731517659316458800,9.569458740234374,-0.1310104876756668,-0.23200473189353943,-0.28677183389663696
1731517659326506500,9.579506591796875,-0.11672421544790268,-0.16589176654815674,-0.33304348587989807
1731517659336553500,9.589553466796875,-0.1348683387041092,-0.13057292997837067,-0.40278899669647217
1731517659346601700,9.599601806640624,-0.18527717888355255,-0.1163785383105278,-0.47594308853149414
1731517659356648700,9.609648681640625,-0.2495238184928894,-0.10910038650035858,-0.5286398530006409
1731517659366696700,9.61969677734375,-0.29387396574020386,-0.08512528240680695,-0.550226092338562
1731517659376743700,9.62974365234375,-0.2956838607788086,-0.026524284854531288,-0.4950331747531891
1731517659386790400,9.639790283203125,-0.2627005875110626,0.08407972007989883,-0.3660437762737274
1731517659396838700,9.649838623046875,-0.21321001648902893,0.202259361743927,-0.26811373233795166
1731517659406885600,9.6598857421875,-0.18472164869308472,0.29072079062461853,-0.31991514563560486
1731517659416933600,9.66993359375,-0.17029769718647003,0.3428708016872406,-0.5068866610527039
1731517659426980600,9.679980712890625,-0.14661793410778046,0.3338317573070526,-0.7677832245826721
1731517659437028600,9.690028564453126,-0.189409077167511,0.0967331975698471,-1.0220533609390259
1731517659447075600,9.70007568359375,-0.2584496736526489,-0.1931164562702179,-1.0872904062271118
1731517659457123600,9.71012353515625,-0.2684016227722168,-0.3489137887954712,-0.8782849311828613
1731517659467170800,9.7201708984375,-0.2052769809961319,-0.2853127121925354,-0.3568207025527954
1731517659477218600,9.730218505859375,-0.04066140949726105,-0.02207920327782631,0.38642627000808716
1731517659487265500,9.740265625,0.20268626511096954,0.2916153371334076,1.0748547315597534
1731517659497312500,9.7503125,0.415577232837677,0.428954541683197,1.4369239807128906
1731517659507360800,9.76036083984375,0.556647777557373,0.45129314064979553,1.5042929649353027
1731517659517407700,9.77040771484375,0.5786479115486145,0.3154740631580353,1.3064072132110596
1731517659527455500,9.78045556640625,0.43662819266319275,0.06696838140487671,0.9198843240737915
1731517659537502500,9.79050244140625,0.19764330983161926,-0.10917602479457855,0.4612981081008911
1731517659547550700,9.80055078125,-0.08009190857410431,-0.19638416171073914,0.009641442447900772
1731517659557597700,9.81059765625,-0.3263706564903259,-0.19758763909339905,-0.32240068912506104
1731517659567645400,9.8206455078125,-0.4353344142436981,-0.1819429099559784,-0.46157482266426086
1731517659577692400,9.8306923828125,-0.4123974144458771,-0.18107710778713226,-0.43142250180244446
1731517659587739600,9.84073974609375,-0.30955785512924194,-0.10270560532808304,-0.24042804539203644
1731517659597787600,9.85078759765625,-0.17714734375476837,-0.015343003906309605,0.014753379859030247
1731517659607834600,9.860834716796875,-0.0798191949725151,0.06597448885440826,0.23283244669437408
1731517659617882400,9.87088232421875,-0.0368480309844017,0.14677852392196655,0.3408052623271942
1731517659627929600,9.8809296875,-0.04402897506952286,0.20491640269756317,0.31774547696113586
1731517659637977600,9.8909775390625,-0.0728829950094223,0.241169735789299,0.2233119159936905
1731517659648024600,9.901024658203125,-0.12643250823020935,0.26023346185684204,0.10228748619556427
1731517659658072800,9.91107275390625,-0.18578878045082092,0.24115030467510223,-0.0005121259018778801
1731517659668119600,9.92111962890625,-0.20863176882266998,0.21088559925556183,-0.030120618641376495
1731517659678166500,9.93116650390625,-0.20578086376190186,0.16622519493103027,-0.005212072748690844
1731517659688214500,9.941214599609374,-0.18800239264965057,0.12979207932949066,0.06315793097019196
1731517659698261500,9.951261474609375,-0.14814844727516174,0.12233656644821167,0.1456615924835205
1731517659708309800,9.961309814453125,-0.09646289050579071,0.1363123059272766,0.2046479433774948
1731517659718356700,9.971356689453126,-0.04086034744977951,0.16007089614868164,0.2292230725288391
1731517659728404500,9.981404541015625,0.0010080065112560987,0.16428960859775543,0.18785139918327332
1731517659738451700,9.99145166015625,0.014357367530465126,0.1723850816488266,0.1024070680141449
1731517659748499700,10.001499755859374,0.002674879040569067,0.18013274669647217,0.007559649180620909
1731517659758546700,10.011546630859375,-0.025488048791885376,0.1879400759935379,-0.08756952732801437
1731517659768593700,10.02159375,-0.046610645949840546,0.18212905526161194,-0.14986778795719147
1731517659778641700,10.0316416015625,-0.05818820372223854,0.18625855445861816,-0.17594732344150543
1731517659788688600,10.041688720703124,-0.05967105180025101,0.13094070553779602,-0.16260328888893127
1731517659798736600,10.051736572265625,-0.053528472781181335,0.08999752998352051,-0.12053307145833969
1731517659808783600,10.06178369140625,-0.01775955595076084,0.04000387340784073,-0.08543287217617035
1731517659818831600,10.07183154296875,0.029712088406085968,0.030065223574638367,-0.09744692593812943
1731517659828878600,10.081878662109375,0.08493779599666595,0.0496240109205246,-0.14324158430099487
1731517659838926600,10.091926513671876,0.15293708443641663,0.09916280210018158,-0.19611145555973053
1731517659848973600,10.1019736328125,0.2205432951450348,0.16661322116851807,-0.21381162106990814
1731517659859020800,10.112020751953125,0.266403466463089,0.23430970311164856,-0.19811893999576569
1731517659869068500,10.122068603515626,0.32064351439476013,0.29733580350875854,-0.1620757281780243
1731517659879115500,10.132115478515624,0.39111822843551636,0.34550386667251587,-0.16043761372566223
1731517659889163500,10.14216357421875,0.45145028829574585,0.39923980832099915,-0.19447360932826996
1731517659899210500,10.15221044921875,0.48169952630996704,0.46917015314102173,-0.22204238176345825
1731517659909258500,10.162258544921874,0.488238126039505,0.5243290066719055,-0.26511794328689575
1731517659919305500,10.172305419921875,0.4938211739063263,0.5255141258239746,-0.3225359618663788
1731517659929353500,10.182353515625,0.49207359552383423,0.5097085237503052,-0.36781078577041626
1731517659939400400,10.192400390625,0.45378321409225464,0.43617066740989685,-0.3909693658351898
1731517659949447700,10.20244775390625,0.4032212197780609,0.3119962513446808,-0.350949227809906
1731517659959495400,10.212495361328125,0.3813614547252655,0.1716950535774231,-0.20633132755756378
1731517659969542400,10.22254248046875,0.37933987379074097,0.07569609582424164,0.018244784325361252
1731517659979590400,10.23259033203125,0.38977599143981934,0.03612391650676727,0.2826322317123413
1731517659989637600,10.2426376953125,0.428091436624527,0.06274008005857468,0.5129958987236023
1731517659999685600,10.252685546875,0.4713890850543976,0.12794837355613708,0.6403113007545471
1731517660009732600,10.262732666015625,0.49840500950813293,0.198900043964386,0.6230875253677368
1731517660019780600,10.272780517578125,0.5098131895065308,0.17813697457313538,0.4646041691303253
1731517660029827600,10.28282763671875,0.5062490701675415,0.06800248473882675,0.21438074111938477
1731517660039874600,10.29287451171875,0.45477283000946045,-0.07104514539241791,-0.06289960443973541
1731517660049922600,10.302922607421875,0.3549671471118927,-0.18865354359149933,-0.2725535035133362
1731517660059969500,10.312969482421876,0.25317925214767456,-0.2583703100681305,-0.34050270915031433
1731517660070017500,10.323017578125,0.17370228469371796,-0.27787530422210693,-0.30567923188209534
1731517660080064500,10.333064453125,0.1368207037448883,-0.24948306381702423,-0.20735345780849457
1731517660090112500,10.343112548828126,0.14838813245296478,-0.1821833848953247,-0.09449747949838638
1731517660100159500,10.353159423828124,0.1693277806043625,-0.13483184576034546,-0.015178154222667217
1731517660110207500,10.36320751953125,0.19289302825927734,-0.09496965259313583,0.0017603494925424457
1731517660120254500,10.37325439453125,0.21570245921611786,-0.07177059352397919,-0.02965642884373665
1731517660130301400,10.383301513671874,0.23897956311702728,-0.06928559392690659,-0.066227488219738
1731517660140349700,10.393349609375,0.24495328962802887,-0.09043562412261963,-0.08653728663921356
1731517660150396700,10.403396728515625,0.2464505285024643,-0.13464170694351196,-0.06614919006824493
1731517660160444400,10.4134443359375,0.2709505259990692,-0.17873965203762054,-0.01489133108407259
1731517660170491400,10.423491455078125,0.3163105547428131,-0.20746025443077087,0.08355854451656342
1731517660180539600,10.43353955078125,0.36829066276550293,-0.21576504409313202,0.23385563492774963
1731517660190586600,10.443586669921874,0.39861422777175903,-0.21551817655563354,0.3883828818798065
1731517660200634400,10.45363427734375,0.40778347849845886,-0.16640761494636536,0.507036030292511
1731517660210681300,10.463681396484375,0.3962245583534241,-0.12198209762573242,0.5648173093795776
1731517660220728600,10.473728515625,0.3508693277835846,-0.10814084857702255,0.5618268251419067
1731517660230776600,10.483776611328125,0.2920406460762024,-0.11727868765592575,0.5377982258796692
1731517660240823600,10.493823486328125,0.21381615102291107,-0.13948625326156616,0.47382375597953796
1731517660250871300,10.503871337890626,0.14489220082759857,-0.1484462022781372,0.37397998571395874
1731517660260918500,10.51391845703125,0.09718327224254608,-0.14958016574382782,0.26533687114715576
1731517660270966500,10.523966552734375,0.07607186585664749,-0.17487753927707672,0.17364715039730072
1731517660281013500,10.534013427734376,0.07823781669139862,-0.22124743461608887,0.1419544816017151
1731517660291061800,10.544061767578125,0.08959300071001053,-0.30948060750961304,0.14351215958595276
1731517660301108500,10.5541083984375,0.09244338423013687,-0.4001767039299011,0.11814314872026443
1731517660311155500,10.564155517578126,0.090706467628479,-0.43252691626548767,0.06508046388626099
1731517660321203500,10.574203369140625,0.067311130464077,-0.42841047048568726,0.0163028072565794
1731517660331250400,10.58425048828125,0.023751135915517807,-0.387040913105011,-0.018807243555784225
1731517660341298700,10.594298583984376,-0.020291423425078392,-0.2866173982620239,-0.03020157851278782
1731517660351345700,10.604345703125,-0.0588553287088871,-0.2162308394908905,-0.04424495995044708
1731517660361393400,10.614393310546875,-0.09874388575553894,-0.17517927289009094,-0.05949927866458893
1731517660371440400,10.6244404296875,-0.13868464529514313,-0.1980678141117096,-0.07562871277332306
1731517660381488600,10.634488525390625,-0.18094554543495178,-0.24153006076812744,-0.10731260478496552
1731517660391535600,10.64453564453125,-0.21626491844654083,-0.2502830922603607,-0.14318698644638062
1731517660401582600,10.65458251953125,-0.2310585230588913,-0.21109706163406372,-0.1937851756811142
1731517660411630600,10.664630615234374,-0.23969514667987823,-0.12204175442457199,-0.25318700075149536
1731517660421677600,10.674677490234375,-0.26519331336021423,0.014944327995181084,-0.29944342374801636
1731517660431725600,10.6847255859375,-0.3052206337451935,0.1369892805814743,-0.37662264704704285
1731517660441772500,10.6947724609375,-0.31593453884124756,0.2070479840040207,-0.5174857378005981
1731517660451820500,10.704820556640625,-0.29957979917526245,0.21479752659797668,-0.6704590320587158
1731517660461867500,10.714867431640625,-0.30900338292121887,0.15662476420402527,-0.7768627405166626
1731517660471915500,10.72491552734375,-0.34936171770095825,0.044079843908548355,-0.7872690558433533
1731517660481962500,10.73496240234375,-0.3920985460281372,-0.02015453577041626,-0.6944855451583862
1731517660492009700,10.745009765625,-0.4416346549987793,0.01979447714984417,-0.528022825717926
1731517660502057500,10.755057373046874,-0.43216472864151,0.1817607432603836,-0.2671422064304352
1731517660512104400,10.7651044921875,-0.36877351999282837,0.3732321560382843,0.025365278124809265
1731517660522152400,10.77515234375,-0.24586117267608643,0.4908466935157776,0.24378789961338043
1731517660532199700,10.78519970703125,-0.09382157027721405,0.4828694462776184,0.34128063917160034
1731517660542247400,10.795247314453125,0.015394402667880058,0.32871103286743164,0.2880445718765259
1731517660552294400,10.80529443359375,0.016830645501613617,0.0450630821287632,0.09819607436656952
1731517660562342400,10.81534228515625,-0.04110003262758255,-0.22990430891513824,-0.16799433529376984
1731517660572389600,10.8253896484375,-0.12801282107830048,-0.3778255879878998,-0.4036523997783661
1731517660582436600,10.8354365234375,-0.20491133630275726,-0.3930436968803406,-0.5014929175376892
1731517660592484400,10.845484375,-0.25620728731155396,-0.33590397238731384,-0.46681803464889526
1731517660602531300,10.85553125,-0.24584172666072845,-0.23003293573856354,-0.3169268071651459
1731517660612579600,10.86557958984375,-0.188063383102417,-0.12364710867404938,-0.12813027203083038
1731517660622626600,10.87562646484375,-0.1208752915263176,-0.03542163968086243,0.009127452038228512
1731517660632674600,10.885674560546875,-0.10284116119146347,0.033425867557525635,0.027668911963701248
1731517660642721500,10.895721435546875,-0.11006471514701843,0.09442344307899475,-0.03044365905225277
1731517660652769500,10.90576953125,-0.13502119481563568,0.1286514550447464,-0.08457879722118378
1731517660662816500,10.91581640625,-0.16259530186653137,0.11482245475053787,-0.08500836789608002
1731517660672863500,10.925863525390625,-0.18531712889671326,0.043287020176649094,-0.01973721943795681
1731517660682911700,10.935911865234376,-0.18120014667510986,-0.03326154872775078,0.10712592303752899
1731517660692958700,10.945958740234374,-0.146052286028862,-0.08005329221487045,0.2553854286670685
1731517660703006500,10.95600634765625,-0.1139417514204979,-0.061534732580184937,0.3760199546813965
1731517660713053400,10.966053466796875,-0.09779447317123413,0.03461044281721115,0.43285688757896423
1731517660723101700,10.976101806640624,-0.08563154935836792,0.17687544226646423,0.39713165163993835
1731517660733148700,10.986148681640625,-0.08787766098976135,0.3106555938720703,0.3152644634246826
1731517660743196400,10.996196533203126,-0.11192360520362854,0.39738625288009644,0.22073957324028015
1731517660753243400,11.006243408203124,-0.15764155983924866,0.41822707653045654,0.13469550013542175
1731517660763290400,11.016290283203125,-0.201007679104805,0.3598993122577667,0.05590454488992691
1731517660773338600,11.026338623046875,-0.20634810626506805,0.24206961691379547,0.016830911859869957
1731517660783385600,11.036385498046876,-0.19045382738113403,0.09177625924348831,0.022011026740074158
1731517660793433300,11.046433349609375,-0.17183354496955872,-0.058927763253450394,0.05692853033542633
1731517660803480600,11.05648046875,-0.15729933977127075,-0.13922527432441711,0.09796544164419174
1731517660813528600,11.066528564453124,-0.1498108059167862,-0.1421148031949997,0.15409448742866516
1731517660823575600,11.076575439453125,-0.1237080916762352,-0.01170619111508131,0.25285887718200684
1731517660833623300,11.086623291015625,-0.10150318592786789,0.14590686559677124,0.34852150082588196
1731517660843670500,11.09667041015625,-0.07502897083759308,0.28433823585510254,0.34766075015068054
1731517660853717500,11.106717529296875,-0.018488463014364243,0.4030444025993347,0.2415066361427307
1731517660863765500,11.116765625,0.056644637137651443,0.4712865650653839,0.097701795399189
1731517660873812000,11.12681201171875,0.10014551132917404,0.4968520998954773,0.007154315710067749
1731517660883860000,11.13685986328125,0.11037444323301315,0.47937723994255066,0.014670555479824543
1731517660893907000,11.146906982421875,0.1267171949148178,0.3942359983921051,0.08853279799222946
1731517660903955000,11.156954833984376,0.17183460295200348,0.28218162059783936,0.16369278728961945
1731517660914002000,11.167001953125,0.22475267946720123,0.24173912405967712,0.1661735326051712
1731517660924049000,11.177048828125,0.24794615805149078,0.2885705530643463,0.07129734754562378
1731517660934097200,11.18709716796875,0.2574475109577179,0.38002508878707886,-0.085383340716362
1731517660944144100,11.19714404296875,0.27917519211769104,0.4539563059806824,-0.24290771782398224
1731517660954192000,11.20719189453125,0.2871130108833313,0.48357120156288147,-0.3933800458908081
1731517660964238800,11.21723876953125,0.2756851017475128,0.4872934818267822,-0.4973224401473999
1731517660974287000,11.227287109375,0.27584517002105713,0.4083361029624939,-0.500901460647583
1731517660984334000,11.237333984375,0.2922041714191437,0.2684181332588196,-0.3642786145210266
1731517660994381800,11.2473818359375,0.35587742924690247,0.17139118909835815,-0.06820622086524963
1731517661004428800,11.2574287109375,0.469971239566803,0.14464746415615082,0.31663069128990173
1731517661014476000,11.26747607421875,0.6023468375205994,0.17765095829963684,0.632937490940094
1731517661024524000,11.27752392578125,0.7133578062057495,0.17786560952663422,0.7658185958862305
1731517661034571000,11.287571044921876,0.7692687511444092,0.15065422654151917,0.6932700872421265
1731517661044619000,11.297618896484375,0.7635985612869263,0.04375040903687477,0.47915273904800415
1731517661054666000,11.307666015625,0.6741379499435425,-0.07806684076786041,0.22645923495292664
1731517661064714000,11.3177138671875,0.5140870213508606,-0.1924879550933838,-0.020682375878095627
1731517661074761000,11.327760986328125,0.33675113320350647,-0.2867358922958374,-0.1865547001361847
1731517661084809000,11.33780908203125,0.18993398547172546,-0.3190799951553345,-0.22520329058170319
1731517661094856000,11.34785595703125,0.11231375485658646,-0.28790581226348877,-0.1863086223602295
1731517661104903000,11.35790283203125,0.10761194676160812,-0.21773472428321838,-0.0962064266204834
1731517661114951000,11.367950927734375,0.13345925509929657,-0.1074092835187912,0.025295503437519073
1731517661124998100,11.377998046875,0.1496792435646057,-0.004852812271565199,0.12907569110393524
1731517661135046000,11.3880458984375,0.14118508994579315,0.05842549353837967,0.15095995366573334
1731517661145092900,11.3980927734375,0.12300501763820648,0.07727827876806259,0.10236258804798126
1731517661155140900,11.408140869140626,0.09521972388029099,0.07503988593816757,0.0288819819688797
1731517661165188000,11.41818798828125,0.0496935211122036,0.030729949474334717,-0.055812131613492966
1731517661175236000,11.428236083984375,0.01155652105808258,-0.04084383696317673,-0.1365639716386795
1731517661185283000,11.438282958984376,0.010898986831307411,-0.12104333192110062,-0.1493636518716812
1731517661195329800,11.448329833984374,0.05565527081489563,-0.1852090060710907,-0.07138097286224365
1731517661205378000,11.4583779296875,0.12830790877342224,-0.21342359483242035,0.0628543272614479
1731517661215425000,11.468425048828125,0.2167682647705078,-0.21040649712085724,0.2127135992050171
1731517661225473000,11.47847314453125,0.2880901098251343,-0.1625327169895172,0.33833569288253784
1731517661235520000,11.48852001953125,0.3236235976219177,-0.11100694537162781,0.3910186290740967
1731517661245568000,11.498568115234375,0.31417709589004517,-0.08855357021093369,0.3835194408893585
1731517661255615000,11.508614990234374,0.2884027659893036,-0.09092085063457489,0.3419767916202545
1731517661265662000,11.518661865234375,0.2316952794790268,-0.11501580476760864,0.30543288588523865
1731517661275710000,11.5287099609375,0.15672676265239716,-0.14461736381053925,0.2960692048072815
1731517661285757200,11.538757080078126,0.06591510027647018,-0.17967921495437622,0.28341013193130493
1731517661295805000,11.548804931640625,-0.009299226105213165,-0.19802413880825043,0.23846717178821564
1731517661305852000,11.558851806640625,-0.055216915905475616,-0.23182258009910583,0.16843588650226593
1731517661315900200,11.568900146484374,-0.08825130015611649,-0.24254898726940155,0.11503071337938309
1731517661325947100,11.578947021484375,-0.15086540579795837,-0.25492602586746216,0.07688573002815247
1731517661335995000,11.588994873046875,-0.2179645597934723,-0.27884840965270996,0.0363558754324913
1731517661346041900,11.599041748046876,-0.2661762833595276,-0.3110862374305725,-0.02075907401740551
1731517661356088800,11.6090888671875,-0.2915535569190979,-0.3709027171134949,-0.09959369897842407
1731517661366137000,11.61913720703125,-0.2984362244606018,-0.4380583167076111,-0.137497678399086
1731517661376184000,11.62918408203125,-0.3019667863845825,-0.45711854100227356,-0.13739833235740662
1731517661386231800,11.639231689453124,-0.2969461977481842,-0.431752473115921,-0.17002658545970917
1731517661396279000,11.649279052734375,-0.28928959369659424,-0.3431469798088074,-0.21899199485778809
1731517661406327000,11.6593271484375,-0.28835269808769226,-0.22582274675369263,-0.26207342743873596
1731517661416374000,11.6693740234375,-0.28147295117378235,-0.11397397518157959,-0.2764963209629059
1731517661426421800,11.679421875,-0.27123016119003296,-0.09317734837532043,-0.28214913606643677
1731517661436469000,11.689468994140626,-0.23682798445224762,-0.10176284611225128,-0.27517059445381165
1731517661446516000,11.699515869140624,-0.20339520275592804,-0.1157982349395752,-0.2479829043149948
1731517661456564000,11.70956396484375,-0.19924546778202057,-0.14372387528419495,-0.26164546608924866
1731517661466611000,11.71961083984375,-0.21997684240341187,-0.16814106702804565,-0.3442346155643463
1731517661476659000,11.729658935546874,-0.2808183431625366,-0.1690763682126999,-0.4808718264102936
1731517661486706000,11.739705810546875,-0.3811870217323303,-0.17421813309192657,-0.6567927598953247
1731517661496754000,11.74975390625,-0.504650890827179,-0.20036105811595917,-0.8133954405784607
1731517661506801000,11.75980078125,-0.5952622890472412,-0.18183903396129608,-0.8205244541168213
1731517661516849200,11.76984912109375,-0.6286482214927673,-0.09201753884553909,-0.6349564790725708
1731517661526895900,11.779895751953125,-0.5570579171180725,0.05421077460050583,-0.2721271216869354
1731517661536942800,11.78994287109375,-0.3481406569480896,0.185596764087677,0.20613399147987366
1731517661546990800,11.799990966796875,-0.10962769389152527,0.2723982334136963,0.6231578588485718
1731517661557038000,11.8100380859375,0.08341819047927856,0.23445405066013336,0.8412904739379883
1731517661567086000,11.820086181640624,0.17868372797966003,0.10663829743862152,0.8530829548835754
1731517661577133000,11.830133056640625,0.150554358959198,-0.07599516212940216,0.6586902737617493
1731517661587181000,11.84018115234375,0.01540319062769413,-0.2568267285823822,0.31329479813575745
1731517661597228000,11.85022802734375,-0.17349882423877716,-0.35229092836380005,-0.08957622200250626
1731517661607275000,11.86027490234375,-0.35232076048851013,-0.35058704018592834,-0.43056416511535645
1731517661617323000,11.870322998046875,-0.45758673548698425,-0.31184151768684387,-0.6128066778182983
1731517661627370000,11.880369873046876,-0.47372496128082275,-0.31315338611602783,-0.6315521597862244
1731517661637418000,11.89041796875,-0.4252682030200958,-0.30260035395622253,-0.4869432747364044
1731517661647465000,11.90046484375,-0.3550768792629242,-0.269652783870697,-0.25445038080215454
1731517661657513000,11.910512939453126,-0.2852778136730194,-0.21106669306755066,-0.028008997440338135
1731517661667560200,11.920560302734375,-0.23181699216365814,-0.12408972531557083,0.14057309925556183
1731517661677608000,11.93060791015625,-0.20754706859588623,-0.02532133460044861,0.23098421096801758
1731517661687655000,11.940655029296876,-0.20520853996276855,0.05873894691467285,0.24465875327587128
1731517661697702000,11.950701904296874,-0.20383994281291962,0.11830826848745346,0.22200164198875427
1731517661707750100,11.960750244140625,-0.1762796938419342,0.14703552424907684,0.2007376253604889
1731517661717797000,11.970797119140625,-0.14079412817955017,0.15239113569259644,0.19617004692554474
1731517661727844900,11.980844970703124,-0.09844854474067688,0.1569901555776596,0.20547352731227875
1731517661737891800,11.990891845703125,-0.06010062247514725,0.15912680327892303,0.20209558308124542
1731517661747940000,12.000940185546876,-0.02407870441675186,0.19081628322601318,0.1832779496908188
1731517661757987000,12.010987060546874,-0.006613694131374359,0.21147283911705017,0.15347051620483398
1731517661768034800,12.021034912109375,-0.006977482233196497,0.2128600776195526,0.12974761426448822
1731517661778081800,12.031081787109375,-0.030588269233703613,0.20557686686515808,0.1141289696097374
1731517661788129000,12.04112890625,-0.05951472744345665,0.1917758285999298,0.07673712074756622
1731517661798177000,12.051177001953125,-0.06532175093889236,0.18248991668224335,0.02593466080725193
1731517661808224000,12.06122412109375,-0.06246204674243927,0.19375908374786377,-0.016146479174494743
1731517661818272000,12.07127197265625,-0.054255515336990356,0.18761223554611206,-0.01739896461367607
1731517661828319000,12.081319091796875,-0.03672019764780998,0.15229979157447815,-0.00999271310865879
1731517661838367000,12.091366943359375,0.014308098703622818,0.10406621545553207,-0.020446952432394028
1731517661848414000,12.1014140625,0.0802205353975296,0.07409500330686569,-0.060918476432561874
1731517661858461000,12.1114609375,0.15533845126628876,0.08990858495235443,-0.09206494688987732
1731517661868509000,12.121509033203125,0.22216089069843292,0.14566239714622498,-0.10211305320262909
1731517661878557000,12.131556884765626,0.2551340162754059,0.22595909237861633,-0.11912159621715546
1731517661888605000,12.14160498046875,0.27005624771118164,0.2999052405357361,-0.16018220782279968
1731517661898652000,12.15165185546875,0.2512279748916626,0.33917006850242615,-0.23703758418560028
1731517661908699600,12.16169970703125,0.21017667651176453,0.3169150948524475,-0.2999904453754425
1731517661918747000,12.171746826171875,0.171625018119812,0.2418304681777954,-0.29818135499954224
1731517661928795000,12.181794921875,0.1493964046239853,0.15200896561145782,-0.22987394034862518
1731517661938841900,12.191841796875,0.17343303561210632,0.11467438191175461,-0.15524205565452576
1731517661948888800,12.201888916015625,0.22553779184818268,0.20016957819461823,-0.1197543665766716
1731517661958936800,12.211936767578125,0.30891311168670654,0.3694824278354645,-0.1706439107656479
1731517661968983800,12.22198388671875,0.3979303240776062,0.5309493541717529,-0.34544795751571655
1731517661979031800,12.23203173828125,0.47576040029525757,0.6432527303695679,-0.554392397403717
1731517661989078800,12.242078857421875,0.5013773441314697,0.6631265878677368,-0.6736612319946289
