time,seconds_elapsed,z,y,x
1731517649795228200,0.048228271484375,0.2963939309120178,-0.005088847130537033,1.1471819877624512
1731517649805276200,0.058276123046875,0.2856304943561554,0.06093597412109375,1.295082926750183
1731517649815323100,0.0683232421875,0.29246917366981506,0.1722751408815384,1.387912631034851
1731517649825371400,0.078371337890625,0.3508690893650055,0.025056134909391403,1.40023672580719
1731517649835418000,0.088418212890625,0.5114933252334595,-0.18779703974723816,1.4227195978164673
1731517649845466000,0.098466064453125,0.7045807838439941,-0.3307070732116699,1.521090030670166
1731517649855513300,0.108513427734375,0.8562397956848145,-0.2767949402332306,1.6221059560775757
1731517649865561600,0.1185615234375,0.9154754281044006,-0.05418504774570465,1.5952298641204834
1731517649875608300,0.1286083984375,0.8393163084983826,0.07542388141155243,1.388839602470398
1731517649885656300,0.13865625,0.805595874786377,0.39251473546028137,1.1874386072158813
1731517649895703300,0.148703369140625,0.837647557258606,0.7305669188499451,0.9659974575042725
1731517649905751600,0.15875146484375,0.9112051725387573,0.638954222202301,0.7701398134231567
1731517649915798500,0.168798583984375,0.9796079397201538,0.1330052763223648,0.7051672339439392
1731517649925845500,0.178845458984375,1.0899560451507568,-0.57071852684021,0.8876797556877136
1731517649935893200,0.188893310546875,1.121668815612793,-1.2918665409088135,1.2427088022232056
1731517649945940500,0.1989404296875,1.097825527191162,-1.7054756879806519,1.6080739498138428
1731517649955988500,0.208988525390625,1.1141104698181152,-1.63869309425354,1.7946085929870605
1731517649966035500,0.219035400390625,1.1293163299560547,-1.3775017261505127,1.6875003576278687
1731517649976083500,0.22908349609375,1.0344816446304321,-1.163347601890564,1.3914254903793335
1731517649986130400,0.23913037109375,0.8543323278427124,-0.8392317891120911,1.0426206588745117
1731517649996178400,0.249178466796875,0.7811734676361084,-0.364462286233902,0.6958932876586914
1731517650006225400,0.259225341796875,0.7764695286750793,-0.0033514685928821564,0.3479994833469391
1731517650016273400,0.2692734375,0.7132470011711121,0.13514669239521027,0.08642954379320145
1731517650026320400,0.2793203125,0.6588665843009949,0.019275479018688202,-0.033287011086940765
1731517650036368400,0.289368408203125,0.6696707010269165,-0.3348787724971771,0.015177195891737938
1731517650046415400,0.299415283203125,0.6801247000694275,-0.8360348343849182,0.21620245277881622
1731517650056463400,0.30946337890625,0.6511014103889465,-1.0413310527801514,0.44356638193130493
1731517650066510300,0.31951025390625,0.6110852956771851,-0.9134178161621094,0.5588266253471375
1731517650076558300,0.329558349609375,0.5076661109924316,-0.6749016046524048,0.49632853269577026
1731517650086605300,0.339605224609375,0.34380125999450684,-0.3896307349205017,0.39256057143211365
1731517650096653600,0.349653564453125,0.210764542222023,-0.09292200952768326,0.268280029296875
1731517650106700500,0.359700439453125,0.17074495553970337,-0.0011300379410386086,0.16345587372779846
1731517650116748300,0.369748291015625,0.22782950103282928,-0.06655967235565186,0.18218429386615753
1731517650126795300,0.379795166015625,0.33641642332077026,-0.25833338499069214,0.289382666349411
1731517650136843500,0.389843505859375,0.39682909846305847,-0.6229936480522156,0.3207389712333679
1731517650146890500,0.399890380859375,0.3489886224269867,-1.1514675617218018,0.22681701183319092
1731517650156938200,0.409938232421875,0.26123106479644775,-1.3059786558151245,0.16459664702415466
1731517650166985500,0.4199853515625,0.11453722417354584,-1.1088178157806396,0.12993134558200836
1731517650177033500,0.430033447265625,-0.06849563866853714,-0.6834617853164673,0.07062327861785889
1731517650187080400,0.44008056640625,-0.23476557433605194,-0.21424105763435364,-0.031566739082336426
1731517650197128200,0.450128173828125,-0.4040141999721527,0.1617736667394638,-0.15544873476028442
1731517650207175400,0.460175537109375,-0.6293306946754456,0.3667643666267395,-0.267299085855484
1731517650217223400,0.470223388671875,-0.8413963317871094,0.40902459621429443,-0.27828848361968994
1731517650227270400,0.4802705078125,-0.8940477967262268,0.30255088210105896,-0.20646652579307556
1731517650237318400,0.490318359375,-0.7776602506637573,0.10950931161642075,-0.15523727238178253
1731517650247365400,0.500365478515625,-0.5272826552391052,-0.05227772518992424,-0.15142442286014557
1731517650257413400,0.510413330078125,-0.319842666387558,-0.014756928198039532,-0.1826847493648529
1731517650267460400,0.52046044921875,-0.17837128043174744,0.21576975286006927,-0.31779995560646057
1731517650277508600,0.530508544921875,-0.07330397516489029,0.46162500977516174,-0.554705798625946
1731517650287555600,0.5405556640625,-0.017485450953245163,0.5327615141868591,-0.740903377532959
1731517650297603300,0.550603271484375,-0.017532631754875183,0.4923120141029358,-0.7253552675247192
1731517650307650300,0.560650390625,-0.08432790637016296,0.3302258849143982,-0.6112086772918701
1731517650317698600,0.570698486328125,-0.17802993953227997,0.010327395051717758,-0.5219099521636963
1731517650327745500,0.58074560546875,-0.23502930998802185,-0.2680072784423828,-0.38354143500328064
1731517650337793300,0.590793212890625,-0.22067391872406006,-0.43371856212615967,-0.2160060852766037
1731517650347840300,0.60084033203125,-0.20608378946781158,-0.4766431450843811,-0.07269793003797531
1731517650357888500,0.610888427734375,-0.160186305642128,-0.3188408315181732,0.038552962243556976
1731517650367935500,0.620935546875,-0.041239142417907715,-0.08317959308624268,0.10288161784410477
1731517650377983200,0.630983154296875,0.1140294224023819,0.03801227733492851,0.161098450422287
1731517650388030200,0.6410302734375,0.1524210274219513,0.03836434707045555,0.2200901359319687
1731517650398078500,0.651078369140625,0.13710564374923706,-0.08590571582317352,0.254535049200058
1731517650408125400,0.66112548828125,0.08881428837776184,-0.29685497283935547,0.2606850862503052
1731517650418173400,0.67117333984375,0.01570863462984562,-0.6591888666152954,0.2846061587333679
1731517650428220400,0.681220458984375,-0.051996905356645584,-1.1716350317001343,0.40516427159309387
1731517650438268400,0.691268310546875,-0.1436791867017746,-1.391038179397583,0.7080819010734558
1731517650448315400,0.7013154296875,-0.20160001516342163,-1.5051660537719727,1.001181960105896
1731517650458363400,0.71136328125,-0.1458909958600998,-1.4335236549377441,1.1288502216339111
1731517650468410400,0.721410400390625,-0.02630200982093811,-0.9948849678039551,1.0114423036575317
1731517650478458400,0.731458251953125,0.09514468908309937,-0.42478495836257935,0.7105888724327087
1731517650488505300,0.74150537109375,0.17415162920951843,-0.16220928728580475,0.3983558714389801
1731517650498553600,0.7515537109375,0.15527966618537903,-0.2298051118850708,0.17043723165988922
1731517650508600600,0.7616005859375,0.048077575862407684,-0.3984239399433136,-0.02075430564582348
1731517650518647600,0.7716474609375,-0.027840543538331985,-0.5374293327331543,-0.18692424893379211
1731517650528695300,0.7816953125,-0.03669821470975876,-0.24748535454273224,-0.2631942331790924
1731517650538742300,0.7917421875,-0.02369450405240059,0.13901060819625854,-0.2836991250514984
1731517650548790500,0.80179052734375,0.029349539428949356,0.33529728651046753,-0.3080343008041382
1731517650558837500,0.81183740234375,0.05189282074570656,0.38791510462760925,-0.4225291907787323
1731517650568885200,0.82188525390625,-0.009751632809638977,0.2475081831216812,-0.629790723323822
1731517650578932200,0.83193212890625,-0.13750264048576355,-0.17565013468265533,-0.6984544992446899
1731517650588980500,0.84198046875,-0.3208892345428467,-0.7951894998550415,-0.48043403029441833
1731517650599027500,0.85202734375,-0.37453800439834595,-1.2379710674285889,-0.09806440770626068
1731517650609075200,0.8620751953125,-0.1847371757030487,-1.3393781185150146,0.24239036440849304
1731517650619122400,0.872122314453125,0.13580681383609772,-1.130086064338684,0.4446795582771301
1731517650629170400,0.88217041015625,0.3390110731124878,-0.8280833959579468,0.5264005064964294
1731517650639217400,0.892217529296875,0.40238189697265625,-0.5395056009292603,0.5668603181838989
1731517650649265400,0.902265380859375,0.3029913902282715,-0.3322906494140625,0.5454003214836121
1731517650659312400,0.9123125,0.08138273656368256,-0.275970458984375,0.4101555347442627
1731517650669360400,0.9223603515625,-0.14615482091903687,-0.14958456158638,0.1984824389219284
1731517650679407400,0.932407470703125,-0.29115909337997437,0.1659843921661377,-0.08980461210012436
1731517650689455600,0.94245556640625,-0.3230794668197632,0.45122838020324707,-0.4416305720806122
1731517650699502600,0.952502685546875,-0.22294485569000244,0.5091871619224548,-0.6236962676048279
1731517650709550300,0.96255029296875,-0.0761793851852417,0.3251664638519287,-0.4471992254257202
1731517650719597300,0.972597412109375,0.07704903930425644,0.05959613248705864,0.016619298607110977
1731517650729645600,0.9826455078125,0.17653435468673706,0.0013219062238931656,0.46919581294059753
1731517650739692500,0.992692626953125,0.23594777286052704,0.6024443507194519,0.7142797708511353
1731517650749740300,1.002740234375,0.006254124455153942,0.2677172124385834,0.5239580273628235
1731517650759787300,1.012787353515625,-0.1279328167438507,-0.22106271982192993,0.21619433164596558
1731517650769835500,1.02283544921875,-0.14797070622444153,-0.2418883591890335,0.12157301604747772
1731517650779882500,1.032882568359375,-0.228573739528656,-0.23466899991035461,0.04241534322500229
1731517650789930200,1.04293017578125,-0.13970112800598145,-0.059942200779914856,0.061768531799316406
1731517650799977200,1.052977294921875,0.04870650917291641,0.09444236010313034,0.11841662973165512
1731517650810025500,1.063025390625,0.22134831547737122,0.27166616916656494,0.1860092580318451
1731517650820072400,1.073072509765625,0.34189021587371826,0.42627716064453125,0.23725034296512604
1731517650830120400,1.083120361328125,0.35756877064704895,0.546972393989563,0.27122482657432556
1731517650840167200,1.093167236328125,0.30211421847343445,0.5600816011428833,0.22744497656822205
1731517650850215400,1.10321533203125,0.07811494916677475,0.4697655737400055,0.042719874531030655
1731517650860262400,1.113262451171875,-0.0792916789650917,0.3675980269908905,-0.10951733589172363
1731517650870310100,1.12331005859375,-0.06240323930978775,0.27389124035835266,-0.1479315608739853
1731517650880357000,1.133357177734375,-0.03529427945613861,0.17529870569705963,-0.12205163389444351
1731517650890404000,1.143404052734375,0.00395006500184536,0.17561589181423187,-0.11172202974557877
1731517650900452000,1.1534521484375,0.17650792002677917,0.15846994519233704,-0.07512246817350388
1731517650910499000,1.1634990234375,0.31382954120635986,-0.0023274654522538185,0.03584159538149834
1731517650920547000,1.173547119140625,0.30226483941078186,-0.09164509922266006,0.11360696703195572
1731517650930594000,1.183593994140625,0.2779538929462433,-0.04952028766274452,0.021202465519309044
1731517650940642000,1.19364208984375,0.2657545208930969,-0.00991646945476532,-0.16858650743961334
1731517650950689000,1.20368896484375,0.19228295981884003,0.03912484273314476,-0.32338619232177734
1731517650960737000,1.213737060546875,0.1810532510280609,0.06112481653690338,-0.405185729265213
1731517650970784000,1.223783935546875,0.19545376300811768,0.06581810116767883,-0.39568328857421875
1731517650980832000,1.23383203125,0.21468296647071838,0.07798802107572556,-0.34099408984184265
1731517650990879000,1.24387890625,0.2419223040342331,0.11906328052282333,-0.33869606256484985
1731517651000927000,1.253927001953125,0.22326521575450897,0.26406970620155334,-0.45687049627304077
1731517651010974000,1.263973876953125,0.15817755460739136,0.43837785720825195,-0.6892512440681458
1731517651021022200,1.274022216796875,0.031705308705568314,0.7777212858200073,-0.9741591811180115
1731517651031069000,1.28406884765625,-0.13435611128807068,0.963867723941803,-1.2592865228652954
1731517651041117000,1.294116943359375,-0.32464489340782166,0.8026396632194519,-1.4356656074523926
1731517651051164000,1.304163818359375,-0.44760677218437195,0.4890673756599426,-1.4326082468032837
1731517651061212200,1.314212158203125,-0.4168834984302521,0.20951329171657562,-1.3103140592575073
1731517651071259100,1.324259033203125,-0.28043535351753235,0.09694358706474304,-1.1565908193588257
1731517651081307000,1.334306884765625,-0.09933184087276459,0.16865648329257965,-1.0424998998641968
1731517651091354000,1.34435400390625,0.07158797234296799,0.4427841603755951,-0.9122310876846313
1731517651101402000,1.354402099609375,0.1302100569009781,0.912265419960022,-0.7761070728302002
1731517651111449000,1.364448974609375,0.09589150547981262,1.5405724048614502,-0.7019180655479431
1731517651121496800,1.374496826171875,0.12415827810764313,2.053178548812866,-0.7088251113891602
1731517651131544000,1.3845439453125,0.182185098528862,2.3217735290527344,-0.7809512615203857
1731517651141592000,1.394592041015625,0.1687139868736267,2.267733335494995,-0.7993072271347046
1731517651151639000,1.40463916015625,0.049376409500837326,1.8767421245574951,-0.6816247701644897
1731517651161687000,1.41468701171875,-0.1239137277007103,1.2164325714111328,-0.43096914887428284
1731517651171734000,1.424734130859375,-0.31692472100257874,0.3043116629123688,-0.2049541026353836
1731517651181781000,1.434781005859375,-0.4481357932090759,-0.4861324727535248,-0.12510068714618683
1731517651191829000,1.4448291015625,-0.45309433341026306,-0.8452025055885315,-0.2406560480594635
1731517651201876000,1.4548759765625,-0.3706566095352173,-0.7986763119697571,-0.5455388426780701
1731517651211924000,1.464924072265625,-0.2708972692489624,-0.5098069310188293,-0.9133275151252747
1731517651221971000,1.474970947265625,-0.1769278198480606,-0.053508467972278595,-1.277370810508728
1731517651232019000,1.48501904296875,-0.10992056131362915,0.4409031271934509,-1.6088006496429443
1731517651242066000,1.49506591796875,-0.1092376634478569,0.6114493012428284,-1.836371898651123
1731517651252114200,1.5051142578125,-0.21812181174755096,0.3969074785709381,-1.8116908073425293
1731517651262161000,1.515160888671875,-0.3906579911708832,0.0014680977910757065,-1.511983871459961
1731517651272209000,1.525208984375,-0.5700932741165161,-0.4808596670627594,-1.096992015838623
1731517651282256100,1.535256103515625,-0.6506468057632446,-0.7252752780914307,-0.7081143260002136
1731517651292304100,1.54530419921875,-0.6531267762184143,-1.0824387073516846,-0.550197422504425
1731517651302351000,1.55535107421875,-0.6009029746055603,-1.1660869121551514,-0.5784428715705872
1731517651312398800,1.56539892578125,-0.5163915157318115,-0.9194470047950745,-0.6902687549591064
1731517651322446000,1.575446044921875,-0.4186844527721405,-0.5818524956703186,-0.8404728770256042
1731517651332494000,1.585494140625,-0.32522666454315186,-0.1197572723031044,-0.9333834052085876
1731517651342541000,1.595541015625,-0.2439359724521637,0.3034276068210602,-0.9256489276885986
1731517651352589000,1.605589111328125,-0.1565006673336029,0.4997723400592804,-0.8432056903839111
1731517651362636000,1.615635986328125,-0.08794648200273514,0.487033873796463,-0.6480485796928406
1731517651372684000,1.62568408203125,-0.06816957890987396,0.36107221245765686,-0.36351725459098816
1731517651382731000,1.63573095703125,-0.13731375336647034,0.09035676717758179,-0.11361220479011536
1731517651392779000,1.645779052734375,-0.23353402316570282,-0.10379406809806824,0.04620568826794624
1731517651402826000,1.655825927734375,-0.2805802822113037,-0.15226870775222778,0.0854143351316452
1731517651412873000,1.665873046875,-0.257589727640152,-0.08898001909255981,0.03644173964858055
1731517651422921000,1.6759208984375,-0.22720035910606384,0.03856736794114113,-0.061345405876636505
1731517651432968200,1.68596826171875,-0.2269580066204071,0.18045847117900848,-0.16611070930957794
1731517651443016000,1.696015869140625,-0.20135487616062164,0.2951437830924988,-0.23126013576984406
1731517651453063000,1.70606298828125,-0.13423016667366028,0.377947598695755,-0.25549623370170593
1731517651463111000,1.71611083984375,-0.05834094434976578,0.35482317209243774,-0.24637185037136078
1731517651473158100,1.726158203125,-0.008425847627222538,0.26327329874038696,-0.1519385576248169
1731517651483206100,1.7362060546875,0.0197637639939785,0.14681574702262878,-0.00041348114609718323
1731517651493253000,1.746253173828125,0.023461297154426575,0.0029579056426882744,0.11899999529123306
1731517651503300900,1.75630078125,0.01846328005194664,-0.08610090613365173,0.15204010903835297
1731517651513348000,1.76634814453125,0.0029871182050555944,-0.061922330409288406,0.11308818310499191
1731517651523396000,1.77639599609375,-0.01262149028480053,0.050986483693122864,0.025313319638371468
1731517651533443000,1.786443115234375,-0.008824355900287628,0.19066369533538818,-0.09501361846923828
1731517651543491000,1.796490966796875,0.02047588862478733,0.30722084641456604,-0.20622989535331726
1731517651553538000,1.8065380859375,0.06303372979164124,0.3649350106716156,-0.2707902193069458
1731517651563586000,1.8165859375,0.11118857562541962,0.3432179093360901,-0.2666875123977661
1731517651573633000,1.826633056640625,0.12841176986694336,0.2538371682167053,-0.17714111506938934
1731517651583681000,1.836680908203125,0.11767817288637161,0.15116238594055176,-0.07426999509334564
1731517651593728000,1.84672802734375,0.09912659227848053,0.0549628846347332,-0.0004807247896678746
1731517651603776000,1.85677587890625,0.08521585911512375,-0.014297711662948132,0.042028654366731644
1731517651613823000,1.866822998046875,0.055332258343696594,-0.04587055370211601,0.06148677319288254
1731517651623871000,1.87687109375,0.018387656658887863,-0.017942411825060844,0.07005935907363892
1731517651633918000,1.88691796875,0.012883169576525688,0.050056878477334976,0.04124129191040993
1731517651643966000,1.896966064453125,0.0322272852063179,0.09843142330646515,-0.018611524254083633
1731517651654013000,1.907012939453125,0.05285027250647545,0.10576630383729935,-0.05808116868138313
1731517651664060200,1.91706005859375,0.05642889812588692,0.07562249153852463,-0.04854226112365723
1731517651674108000,1.92710791015625,0.058347441256046295,0.02883341908454895,-0.019782250747084618
1731517651684155000,1.93715478515625,0.06380550563335419,-0.012018613517284393,-0.013052842579782009
1731517651694203100,1.947203125,0.08232912421226501,-0.016234930604696274,-0.03854035958647728
1731517651704250000,1.95725,0.10517915338277817,-0.0120310103520751,-0.07207701355218887
1731517651714298000,1.967298095703125,0.11760546267032623,0.041521962732076645,-0.09150077402591705
1731517651724345000,1.977344970703125,0.08749895542860031,0.03748301416635513,-0.09201263636350632
1731517651734393000,1.98739306640625,-0.013377589173614979,0.04329775646328926,-0.050724588334560394
1731517651744440000,1.997440185546875,-0.05633092671632767,0.09833760559558868,-0.007696691434830427
1731517651754488000,2.007488037109375,-0.04887114465236664,0.012806195765733719,-0.01456365268677473
1731517651764535000,2.01753515625,-0.017972862347960472,-0.04858880862593651,-0.014857267029583454
1731517651774583000,2.0275830078125,0.025461429730057716,-0.07516288757324219,0.054415013641119
1731517651784630000,2.037630126953125,0.06045455485582352,-0.06853929162025452,0.12959112226963043
1731517651794678000,2.047677978515625,0.0745924785733223,-0.027807045727968216,0.12293828278779984
1731517651804725000,2.05772509765625,0.07639162987470627,0.03183344379067421,0.02676927112042904
1731517651814773000,2.06777294921875,0.05867282301187515,0.100043386220932,-0.08472955971956253
1731517651824820000,2.077820068359375,0.020425977185368538,0.15824489295482635,-0.12892843782901764
1731517651834868000,2.087867919921875,-0.01009970810264349,0.19984427094459534,-0.10105367004871368
1731517651844915000,2.0979150390625,-0.0034725996665656567,0.16586856544017792,-0.04895571619272232
1731517651854963000,2.107962890625,0.02278936468064785,0.07986897230148315,0.013431228697299957
1731517651865010700,2.1180107421875,0.047668907791376114,0.016896305605769157,0.059122148901224136
1731517651875057700,2.1280576171875,0.053025856614112854,0.013431799598038197,0.0728779062628746
1731517651885106000,2.13810595703125,0.0567084401845932,0.03687920421361923,0.05403125286102295
1731517651895153000,2.14815283203125,0.06086563318967819,0.0428292416036129,0.028977030888199806
1731517651905200600,2.15820068359375,0.06146744638681412,0.01368622574955225,0.014071453362703323
1731517651915247600,2.16824755859375,0.043328657746315,-0.012496109120547771,0.01831839606165886
1731517651925295900,2.1782958984375,0.0021442631259560585,-0.013743756338953972,0.02918901853263378
1731517651935342800,2.1883427734375,-0.04843528941273689,0.02388564497232437,0.035415757447481155
1731517651945390600,2.198390625,-0.05957990139722824,0.06329407542943954,0.01489903312176466
1731517651955437600,2.2084375,-0.04164297878742218,0.0763920322060585,-0.032636795192956924
1731517651965485800,2.21848583984375,-0.024232355877757072,0.11647791415452957,-0.06149480864405632
1731517651975532800,2.22853271484375,0.003056787885725498,0.11029298603534698,-0.07890495657920837
1731517651985580800,2.238580810546875,0.011973272077739239,0.11741074174642563,-0.0681147649884224
1731517651995627500,2.24862744140625,0.011478723026812077,0.1702244132757187,-0.0183836929500103
1731517652005675800,2.25867578125,0.03650757297873497,0.1356097310781479,0.02824879065155983
1731517652015722800,2.26872265625,0.06253863871097565,0.061027102172374725,0.053851887583732605
1731517652025770800,2.278770751953125,0.07704709470272064,0.01156095415353775,0.060017503798007965
1731517652035817700,2.288817626953125,0.06687594950199127,-0.001882682554423809,0.05765581503510475
1731517652045865700,2.29886572265625,0.048658084124326706,0.03732189163565636,0.050547704100608826
1731517652055912700,2.30891259765625,0.010507503524422646,0.017522621899843216,0.014548690989613533
1731517652065960700,2.318960693359375,-0.02694304846227169,0.011756543070077896,-0.006277628242969513
1731517652076008000,2.329008056640625,-0.017172975465655327,0.005140984430909157,-0.01974336989223957
1731517652086055000,2.339054931640625,-0.007973955944180489,-0.026158340275287628,-0.033780358731746674
1731517652096102700,2.3491025390625,0.006994075607508421,-0.03499390929937363,-0.025499260053038597
1731517652106149600,2.359149658203125,0.036905065178871155,-0.032532475888729095,0.006409671623259783
1731517652116198000,2.369197998046875,0.0554201602935791,-0.0026100007817149162,0.036243733018636703
1731517652126244900,2.379244873046875,0.06113923341035843,0.0408027283847332,0.05167808383703232
1731517652136292600,2.389292724609375,0.06343460828065872,0.09371521323919296,0.04893875494599342
1731517652146339600,2.399339599609375,0.061154965311288834,0.13649535179138184,0.032063767313957214
1731517652156387800,2.409387939453125,0.061760302633047104,0.16127605736255646,0.008845796808600426
1731517652166434800,2.419434814453125,0.048611387610435486,0.14493952691555023,-0.003357470501214266
1731517652176482600,2.429482666015625,0.03290645778179169,0.08288387954235077,-0.009070217609405518
1731517652186529500,2.439529541015625,0.016809316352009773,0.020238598808646202,-0.0051465826109051704
1731517652196577800,2.449577880859375,0.012898464687168598,-0.0051823388785123825,0.00884699635207653
1731517652206624800,2.459624755859375,0.014845166355371475,-0.0023354124277830124,0.020796334370970726
1731517652216672800,2.4696728515625,0.005712388549000025,-0.0023529892787337303,0.023614225909113884
1731517652226719700,2.4797197265625,0.013356459327042103,0.0011748997494578362,0.024082142859697342
1731517652236767700,2.489767822265625,0.03347104787826538,0.004804788623005152,0.03620724752545357
1731517652246814700,2.499814697265625,0.04012128710746765,0.035009074956178665,0.0600258931517601
1731517652256862700,2.50986279296875,0.03316111862659454,0.0917687639594078,0.057648491114377975
1731517652266910000,2.519909912109375,0.021990878507494926,0.11441709101200104,0.03125736489892006
1731517652276956700,2.529956787109375,0.014148934744298458,0.11314037442207336,0.0013298257254064083
1731517652287004700,2.540004638671875,-0.0004624169087037444,0.09775204211473465,0.00030624005012214184
1731517652297051600,2.5500517578125,-0.012182989157736301,0.06277541071176529,0.019394714385271072
1731517652307100000,2.560099853515625,-0.021686213091015816,0.016488607972860336,0.039981212466955185
1731517652317147000,2.57014697265625,-0.023768272250890732,-0.017592929303646088,0.040457386523485184
1731517652327194600,2.580194580078125,-0.023652702569961548,-0.0070837754756212234,0.0059541380032896996
1731517652337241600,2.59024169921875,-0.025859396904706955,0.035881802439689636,-0.033386342227458954
1731517652347289900,2.600289794921875,-0.029124710708856583,0.0679393857717514,-0.05029568448662758
1731517652357336800,2.6103369140625,-0.02627086639404297,0.05751337856054306,-0.043184779584407806
1731517652367384600,2.620384521484375,-0.009617762640118599,0.031207360327243805,-0.01912977546453476
1731517652377431600,2.630431640625,0.013724044896662235,0.0007916633039712906,0.01950443536043167
1731517652387479800,2.640479736328125,0.025811590254306793,-0.0012551899999380112,0.05145823955535889
1731517652397526800,2.65052685546875,0.034490302205085754,0.01428089290857315,0.060050129890441895
1731517652407574500,2.660574462890625,0.03469521179795265,0.02888600155711174,0.05409783124923706
1731517652417621500,2.67062158203125,0.020522933453321457,0.04621705785393715,0.0410347618162632
1731517652427669800,2.680669677734375,-0.007621085736900568,0.06393453478813171,0.01630624383687973
1731517652437716700,2.690716796875,-0.0301266610622406,0.07970737665891647,-0.02011248469352722
1731517652447764700,2.7007646484375,-0.040077224373817444,0.08264829218387604,-0.056836940348148346
1731517652457811700,2.710811767578125,-0.048273902386426926,0.04828925430774689,-0.07159031927585602
1731517652467859700,2.720859619140625,-0.04382823035120964,0.024213768541812897,-0.06190440431237221
1731517652477906700,2.73090673828125,-0.03972642868757248,0.011352832429111004,-0.03617480397224426
1731517652487953700,2.74095361328125,-0.04547809436917305,-0.00041154492646455765,-0.00651251757517457
1731517652498002000,2.751001953125,-0.030712198466062546,0.017210591584444046,0.019331064075231552
1731517652508049000,2.761048828125,-0.0032503642141819,0.025995895266532898,0.021067844703793526
1731517652518096600,2.7710966796875,0.014162180945277214,0.02462995983660221,-0.00848072674125433
1731517652528143600,2.7811435546875,0.013255096971988678,0.02699064090847969,-0.019460273906588554
1731517652538192000,2.79119189453125,-0.0018000187119469047,0.038807883858680725,-0.017010964453220367
1731517652548238800,2.80123876953125,-0.02068323642015457,0.03825797885656357,-0.01034480333328247
1731517652558286600,2.81128662109375,-0.028516393154859543,0.011414913460612297,-0.00023571017663925886
1731517652568333600,2.82133349609375,-0.027991948649287224,0.016242951154708862,-0.0020322795026004314
1731517652578381800,2.8313818359375,-0.023322096094489098,0.03494952619075775,-0.02291598916053772
1731517652588428800,2.8414287109375,-0.010974051430821419,0.05503923445940018,-0.028798783197999
1731517652598476500,2.8514765625,-0.008833668194711208,0.04957415908575058,-0.024691389873623848
1731517652608523800,2.861523681640625,-0.011927232146263123,0.04654308781027794,-0.010417379438877106
1731517652618571800,2.87157177734375,0.0013936334289610386,0.05577173829078674,-0.015119722113013268
1731517652628618800,2.88161865234375,0.01167972106486559,0.060182347893714905,-0.021311571821570396
1731517652638666800,2.891666748046875,0.002084352308884263,0.06435684859752655,-0.023295892402529716
1731517652648713700,2.901713623046875,-0.01115571428090334,0.05841892212629318,-0.007621059659868479
1731517652658761700,2.91176171875,-0.02778821997344494,0.048980411142110825,0.004130404908210039
1731517652668808700,2.92180859375,-0.035643305629491806,0.029060859233140945,0.014602621085941792
1731517652678855700,2.931855712890625,-0.037806857377290726,0.009325237944722176,0.015149101614952087
1731517652688904000,2.941904052734375,-0.04524409398436546,-0.01606788858771324,0.000509437988512218
1731517652698950700,2.95195068359375,-0.05249481648206711,-0.01791265979409218,-0.012339248321950436
1731517652708998700,2.96199853515625,-0.05292060971260071,0.019889656454324722,-0.025996072217822075
1731517652719045600,2.972045654296875,-0.05426151305437088,0.03335646539926529,-0.03481725975871086
1731517652729094000,2.982093994140625,-0.0431169718503952,0.04629617929458618,-0.036319416016340256
1731517652739140900,2.992140869140625,-0.022716090083122253,0.04680563881993294,-0.034698616713285446
1731517652749188600,3.002188720703125,-0.015971463173627853,0.057352401316165924,-0.011592231690883636
1731517652759235600,3.012235595703125,-0.011806012131273746,0.04645847529172897,0.01624765433371067
1731517652769283800,3.022283935546875,-0.002805049531161785,0.05194373428821564,0.04463468864560127
1731517652779330800,3.032330810546875,0.004779633600264788,0.05333710461854935,0.045195817947387695
1731517652789378600,3.042378662109375,0.009792801924049854,0.07752645760774612,0.021947486326098442
1731517652799425800,3.05242578125,0.004283520858734846,0.08363787829875946,0.0020347642712295055
1731517652809473800,3.062473876953125,-0.016051772981882095,0.09628468751907349,0.000037925667129457
1731517652819520800,3.072520751953125,-0.03364861011505127,0.0864616185426712,0.005227894056588411
1731517652829568500,3.082568603515625,-0.052379410713911057,0.06482444703578949,0.01040760986506939
1731517652839615700,3.09261572265625,-0.04253476858139038,-0.0008198078721761703,0.002615999896079302
1731517652849662700,3.102662841796875,-0.05606129765510559,-0.01466530840843916,-0.010123763233423233
1731517652859710700,3.112710693359375,-0.04077155888080597,-0.002464301884174347,-0.025314169004559517
1731517652869757200,3.122757080078125,-0.04391761124134064,0.06564521789550781,-0.046720657497644424
1731517652879805200,3.13280517578125,-0.043593503534793854,0.144571453332901,-0.06344584375619888
1731517652889852200,3.14285205078125,-0.02674037031829357,0.17468389868736267,-0.0639924556016922
1731517652899900200,3.152900146484375,-0.006091285962611437,0.14539392292499542,-0.04388159513473511
1731517652909947100,3.162947021484375,-0.0003800559788942337,0.09171384572982788,-0.024082189425826073
1731517652919995100,3.1729951171875,-0.003510601818561554,0.0384700670838356,-0.02201504446566105
1731517652930042000,3.1830419921875,-0.004361770115792751,0.011722158640623093,-0.04960019886493683
1731517652940090000,3.193090087890625,-0.020236339420080185,0.019505247473716736,-0.07927393913269043
1731517652950137000,3.20313720703125,-0.04922020435333252,0.05840664356946945,-0.10778161138296127
1731517652960185000,3.21318505859375,-0.05782967060804367,0.08660685271024704,-0.11574499309062958
1731517652970232000,3.223232177734375,-0.029601093381643295,0.0812019556760788,-0.1042151153087616
1731517652980280000,3.233280029296875,0.011187083087861538,0.006980188190937042,-0.08990328758955002
1731517652990327000,3.2433271484375,0.042259540408849716,-0.05425902083516121,-0.09588754177093506
1731517653000375000,3.253375,0.05539291724562645,-0.08212340623140335,-0.11823918670415878
1731517653010422000,3.263422119140625,0.04806211218237877,-0.07991784065961838,-0.1353437304496765
1731517653020470000,3.273469970703125,0.02876085415482521,-0.03749927133321762,-0.1310102343559265
1731517653030517000,3.28351708984375,0.007930235005915165,0.007719756104052067,-0.11413112282752991
1731517653040564000,3.29356396484375,0.003032681532204151,0.04374407231807709,-0.11883000284433365
1731517653050612200,3.3036123046875,0.004619658924639225,0.0773068219423294,-0.12085187435150146
1731517653060659200,3.3136591796875,0.003909926861524582,0.10098711401224136,-0.1022544875741005
1731517653070707200,3.323707275390625,-0.009579147212207317,0.0750640258193016,-0.06078028678894043
1731517653080754000,3.33375390625,-0.020302897319197655,0.014818798750638962,-0.026989296078681946
1731517653090802200,3.34380224609375,-0.024891164153814316,-0.03609615936875343,-0.00649493932723999
1731517653100849200,3.35384912109375,-0.036194417625665665,-0.055305540561676025,0.0022064067889004946
1731517653110897200,3.363897216796875,-0.04453481361269951,-0.05122753605246544,-0.013511438854038715
1731517653120944000,3.373944091796875,-0.045421913266181946,-0.041440416127443314,-0.03882451727986336
1731517653130992000,3.3839921875,-0.03829140588641167,-0.031514935195446014,-0.06283877789974213
1731517653141039000,3.3940390625,-0.027260856702923775,-0.012336716055870056,-0.06928575783967972
1731517653151087000,3.404087158203125,-0.01916884258389473,0.023936336860060692,-0.04453646391630173
1731517653161134000,3.414134033203125,-0.00177760177757591,0.06893230974674225,-0.0007381186587736011
1731517653171182000,3.42418212890625,0.021588776260614395,0.06958024203777313,0.030010471120476723
1731517653181229000,3.43422900390625,0.03740609064698219,0.0246878731995821,0.058922816067934036
1731517653191277000,3.444277099609375,0.04063326120376587,-0.018238097429275513,0.09317892044782639
1731517653201324300,3.45432421875,0.02685220167040825,-0.039017144590616226,0.14489272236824036
1731517653211372000,3.4643720703125,0.006548068020492792,-0.013054019771516323,0.17486779391765594
1731517653221419000,3.4744189453125,-0.001526369946077466,0.007781753782182932,0.1650596410036087
1731517653231466000,3.484466064453125,0.0028878534212708473,0.022238321602344513,0.14499644935131073
1731517653241514200,3.49451416015625,0.007620024494826794,0.014028593897819519,0.11041770130395889
1731517653251561200,3.504561279296875,-0.005657779984176159,-0.012968608178198338,0.07350136339664459
1731517653261609000,3.51460888671875,-0.023836517706513405,-0.02714727818965912,0.03967468813061714
1731517653271656000,3.524656005859375,-0.03730307146906853,-0.03213772177696228,0.010476719588041306
1731517653281704200,3.5347041015625,-0.035656172782182693,-0.01931406930088997,-0.008375532925128937
1731517653291751200,3.544751220703125,-0.023693805560469627,0.016766253858804703,-0.006635554134845734
1731517653301799200,3.554799072265625,-0.010901311412453651,0.047602731734514236,0.003006153739988804
1731517653311846100,3.56484619140625,0.001899704453535378,0.07342420518398285,0.014648695476353168
1731517653321894100,3.57489404296875,0.015071699395775795,0.06793143600225449,0.015452438034117222
1731517653331941000,3.584941162109375,0.013667134568095207,0.04674418270587921,0.013694084249436855
1731517653341989000,3.594989013671875,0.0012738481163978577,0.031220881268382072,0.008181340992450714
1731517653352036000,3.6050361328125,-0.023599056527018547,0.024138126522302628,0.002137428615242243
1731517653362084000,3.615083984375,-0.03802460432052612,0.01609165221452713,-0.021733814850449562
1731517653372131000,3.625131103515625,-0.03595540672540665,0.012675676494836807,-0.045012373477220535
1731517653382179000,3.635178955078125,-0.02393150143325329,0.020403370261192322,-0.05694147199392319
1731517653392226300,3.645226318359375,-0.010390693321824074,0.04292319715023041,-0.05177414044737816
1731517653402273300,3.655273193359375,-0.001518638338893652,0.04851450398564339,-0.02921769767999649
1731517653412321000,3.665321044921875,-0.0012842683354392648,0.03222868964076042,-0.009039058350026608
1731517653422368000,3.675367919921875,0.009393409825861454,0.0022111358121037483,0.008746596984565258
1731517653432416300,3.685416259765625,0.026810297742486,-0.007908403873443604,0.02265402488410473
1731517653442463200,3.695463134765625,0.027808984741568565,0.02039354108273983,0.015539920888841152
1731517653452511000,3.705510986328125,0.021089931949973106,0.07170824706554413,-0.01603744737803936
1731517653462558000,3.715557861328125,0.013721763156354427,0.09687325358390808,-0.0651642456650734
1731517653472606200,3.725606201171875,0.010042618960142136,0.10069670528173447,-0.10104381293058395
1731517653482653200,3.735653076171875,0.017923446372151375,0.08702057600021362,-0.11483100056648254
1731517653492701000,3.745700927734375,0.03524288535118103,0.0675354152917862,-0.10881785303354263
1731517653502748000,3.755747802734375,0.050321437418460846,0.02170533686876297,-0.06614468991756439
1731517653512796200,3.765796142578125,0.06723187118768692,-0.026707056909799576,0.0005666980287060142
1731517653522843100,3.775843017578125,0.07029956579208374,-0.04929705709218979,0.0649600699543953
1731517653532891100,3.78589111328125,0.06335373222827911,-0.0301175769418478,0.09181737899780273
1731517653542938000,3.795938232421875,0.06096061319112778,0.021128032356500626,0.07460323721170425
1731517653552985000,3.805985107421875,0.06163020059466362,0.06250742077827454,0.026356615126132965
1731517653563033000,3.816033203125,0.06485342979431152,0.07001248002052307,-0.003795694326981902
1731517653573080000,3.826080078125,0.06143965944647789,0.034778572618961334,-0.010540416464209557
1731517653583128300,3.83612841796875,0.03904460370540619,-0.01034229900687933,0.009629033505916595
1731517653593175300,3.84617529296875,0.005162630695849657,-0.04193921759724617,0.015295708552002907
1731517653603223000,3.85622314453125,-0.028815576806664467,-0.06039998307824135,0.008617565035820007
1731517653613270000,3.86627001953125,-0.044324930757284164,-0.06268589198589325,-0.0023993970826268196
1731517653623318300,3.876318359375,-0.05771104246377945,-0.03997951000928879,-0.012368674390017986
1731517653633365200,3.886365234375,-0.05777483806014061,0.015845973044633865,-0.00899671483784914
1731517653643413000,3.8964130859375,-0.04620366916060448,0.05378802865743637,-0.007646758574992418
1731517653653460000,3.9064599609375,-0.024745652452111244,0.04009939730167389,-0.005180137697607279
1731517653663508200,3.91650830078125,-0.009810112416744232,0.01335832942277193,0.0017139870906248689
1731517653673555200,3.92655517578125,-0.010241162031888962,-0.0027886144816875458,0.007565351203083992
1731517653683603000,3.93660302734375,-0.019098037853837013,0.007856040261685848,0.012730819173157215
1731517653693650000,3.94664990234375,-0.02872353419661522,0.015026206150650978,0.0037567652761936188
1731517653703698200,3.9566982421875,-0.0223428662866354,0.008533420041203499,-0.016674740239977837
1731517653713745200,3.9667451171875,-0.005962492898106575,0.0016664518043398857,-0.01833016239106655
1731517653723792100,3.976792236328125,0.00276308786123991,-0.012053089216351509,0.006805817596614361
1731517653733840000,3.98683984375,0.0032202312722802162,-0.013191895559430122,0.03588873893022537
1731517653743887000,3.99688720703125,-0.0064270696602761745,0.009546706452965736,0.05068925768136978
1731517653753935000,4.00693505859375,-0.0012209052219986916,0.020842961966991425,0.04846351966261864
1731517653763982000,4.016982177734375,0.0056543112732470036,0.008241947740316391,0.048444345593452454
1731517653774030300,4.0270302734375,0.011883222497999668,-0.010621391236782074,0.06031404808163643
1731517653784077000,4.0370771484375,0.005891109351068735,-0.009671706706285477,0.06932378560304642
1731517653794125000,4.047125,-0.0003561685443855822,0.00504372688010335,0.061432309448719025
1731517653804172000,4.057172119140625,0.0066223787143826485,0.0012178299948573112,0.03865322843194008
1731517653814220300,4.06722021484375,0.022622941061854362,-0.007711589336395264,0.015463223680853844
1731517653824267300,4.077267333984375,0.034374672919511795,-0.0064918603748083115,0.004248385317623615
1731517653834315000,4.08731494140625,0.03835924714803696,-0.0025403378531336784,0.0022527449764311314
1731517653844362000,4.097362060546875,0.026840277016162872,-0.0035829655826091766,-0.005206236615777016
1731517653854410200,4.10741015625,0.011830898001790047,0.0002357475459575653,-0.010272899642586708
1731517653864457200,4.117457275390625,0.0029431309085339308,0.0020301854237914085,-0.0043305885046720505
1731517653874504700,4.127504638671875,-0.0022952244617044926,0.0011526132002472878,0.006573325488716364
1731517653884552700,4.137552734375,-0.0017362269572913647,0.005563074257224798,0.010911082848906517
1731517653894599700,4.147599609375,0.00840845238417387,0.012255208566784859,0.0037333322688937187
1731517653904648000,4.15764794921875,0.01342797838151455,0.01340223103761673,-0.011018982157111168
1731517653914695000,4.16769482421875,0.008460000157356262,0.0022861305624246597,-0.027159471064805984
1731517653924742700,4.17774267578125,0.007304721511900425,-0.004687889479100704,-0.034388620406389236
1731517653934789600,4.18778955078125,0.010297048836946487,-0.00878329947590828,-0.020976409316062927
1731517653944838000,4.197837890625,0.01802714169025421,-0.001040690578520298,0.01595311239361763
1731517653954884900,4.207884765625,0.029218295589089394,0.006324197165668011,0.034723203629255295
1731517653964932600,4.2179326171875,0.03600243106484413,0.002846109215170145,0.008635411038994789
1731517653974979600,4.2279794921875,0.04012249410152435,0.014594576321542263,-0.025728821754455566
1731517653985027800,4.23802783203125,0.01981482282280922,0.03752865269780159,-0.0255045834928751
1731517653995074800,4.24807470703125,0.001512064365670085,0.060995303094387054,-0.017428681254386902
1731517654005122600,4.25812255859375,0.0015626645181328058,0.07816044241189957,-0.023055939003825188
1731517654015169500,4.26816943359375,0.023778153583407402,0.10040316730737686,-0.04117715358734131
1731517654025216800,4.278216796875,0.05997637286782265,0.09674398601055145,-0.07034782320261002
1731517654035264800,4.2882646484375,0.07792357355356216,0.06407275795936584,-0.07509610801935196
1731517654045311700,4.298311767578125,0.07701011002063751,0.035862427204847336,-0.051958829164505005
1731517654055359700,4.30835986328125,0.06871738284826279,0.022529996931552887,-0.013145918026566505
1731517654065406700,4.31840673828125,0.05243561789393425,0.014998311176896095,0.03641950339078903
1731517654075454700,4.328454833984375,0.028941772878170013,-0.001991432160139084,0.0672551840543747
1731517654085501700,4.338501708984375,0.016570856794714928,-0.005997092463076115,0.050404299050569534
1731517654095549700,4.3485498046875,0.020082272589206696,-0.002393735572695732,0.015479333698749542
1731517654105596700,4.3585966796875,0.018035633489489555,0.018214870244264603,-0.013457775115966797
1731517654115644700,4.368644775390625,0.0031244922429323196,0.046629611402750015,-0.03243865817785263
1731517654125691600,4.378691650390625,-0.00764692947268486,0.054208435118198395,-0.055208150297403336
1731517654135740000,4.388739990234375,-0.005310886073857546,0.022217540070414543,-0.07135423272848129
1731517654145787000,4.398786865234375,0.002313477685675025,-0.02107400819659233,-0.06589874625205994
1731517654155834600,4.408834716796875,0.015203390270471573,-0.05501604452729225,-0.04091043397784233
1731517654165881600,4.418881591796875,0.029679004102945328,-0.05338405445218086,0.000876425881870091
1731517654175929900,4.428929931640625,0.03967488184571266,-0.022522173821926117,0.023563891649246216
1731517654185976800,4.438976806640625,0.04428241774439812,0.02771569788455963,0.0007595100905746222
1731517654196023800,4.44902392578125,0.04207027703523636,0.08488783985376358,-0.025702858343720436
1731517654206071600,4.459071533203125,0.032482367008924484,0.10637155920267105,-0.02386128157377243
1731517654216118800,4.469118896484375,0.021480362862348557,0.07173935323953629,-0.013087861239910126
1731517654226166800,4.479166748046875,0.016356442123651505,0.014404426328837872,0.0049292221665382385
1731517654236213800,4.4892138671875,0.021867752075195312,-0.029600704088807106,0.020206181332468987
1731517654246261800,4.49926171875,0.020506344735622406,-0.051924653351306915,0.02359851449728012
1731517654256308700,4.509308837890625,0.006434741895645857,-0.04816669598221779,0.00803206954151392
1731517654266356700,4.519356689453125,-0.00666401581838727,-0.022351078689098358,-0.03293081000447273
1731517654276403700,4.52940380859375,-0.01890137791633606,0.021888040006160736,-0.07768549770116806
1731517654286451700,4.53945166015625,-0.018695250153541565,0.057447366416454315,-0.08876238018274307
1731517654296498700,4.549498779296875,-0.014253083616495132,0.06878039240837097,-0.04888966679573059
1731517654306546700,4.559546630859375,-0.005357060581445694,0.06602481752634048,0.01267782412469387
1731517654316593700,4.56959375,0.008289980702102184,0.049375515431165695,0.05326918885111809
1731517654326642000,4.579641845703125,0.027821870520710945,0.022117793560028076,0.06187492981553078
1731517654336688600,4.589688720703125,0.03870099410414696,0.0038166488520801067,0.04821624606847763
1731517654346735600,4.599735595703125,0.030546927824616432,-0.0048823002725839615,0.02516232430934906
1731517654356783600,4.60978369140625,0.004389665555208921,-0.011527054943144321,-0.008664085529744625
1731517654366830800,4.619830810546875,-0.016081521287560463,-0.015318063087761402,-0.031191231682896614
1731517654376878800,4.62987890625,-0.027225436642766,-0.021406112238764763,-0.03677281737327576
1731517654386925800,4.63992578125,-0.02072572521865368,-0.017321353778243065,-0.026300471276044846
1731517654396973800,4.649973876953125,-0.011203515343368053,-0.012679764069616795,-0.004334580153226852
1731517654407020800,4.660020751953125,-0.00007789384108036757,-0.0034668240696191788,0.022352423518896103
1731517654417068800,4.67006884765625,0.00878620520234108,0.01057429052889347,0.04551500082015991
1731517654427115800,4.68011572265625,0.012858976610004902,0.018899332731962204,0.050881803035736084
1731517654437163800,4.690163818359375,0.01466590166091919,0.010677196085453033,0.03885283321142197
1731517654447210800,4.700210693359375,0.010309502482414246,0.020362582057714462,0.020190466195344925
1731517654457258800,4.7102587890625,-0.012065624818205833,0.028363972902297974,-0.0030073984526097775
1731517654467305700,4.7203056640625,-0.03088138997554779,0.02713705226778984,-0.027505816891789436
1731517654477353700,4.730353759765625,-0.045611634850502014,0.007267345674335957,-0.04245946556329727
1731517654487400700,4.740400634765625,-0.04769023507833481,-0.012994516640901566,-0.030149804428219795
1731517654497447700,4.75044775390625,-0.04001525416970253,-0.02651490643620491,0.0024644669611006975
1731517654507495700,4.76049560546875,-0.027813183143734932,-0.029151704162359238,0.02528269588947296
1731517654517543000,4.77054296875,-0.012961532920598984,-0.019094275310635567,0.033795490860939026
1731517654527590700,4.780590576171875,-0.0031874659471213818,-0.0008308487012982368,0.030683055520057678
1731517654537637600,4.7906376953125,-0.004715020768344402,0.010324995964765549,0.018852761015295982
1731517654547685600,4.800685546875,-0.015412939712405205,0.019291061908006668,0.003481794148683548
1731517654557732900,4.81073291015625,-0.02502545341849327,0.0226619690656662,0.0031552917789667845
1731517654567780600,4.820780517578125,-0.029965883120894432,0.008576243184506893,0.02089567296206951
1731517654577827600,4.83082763671875,-0.020139899104833603,-0.010617904365062714,0.04317394644021988
1731517654587875800,4.840875732421875,-0.0028053843416273594,-0.017835337668657303,0.052782632410526276
1731517654597922800,4.8509228515625,0.007306570652872324,-0.01846356876194477,0.04848349094390869
1731517654607970800,4.860970703125,0.0011815661564469337,-0.017638254910707474,0.03167681396007538
1731517654618017800,4.871017822265625,-0.01609552651643753,-0.008863262832164764,0.016061104834079742
1731517654628065800,4.881065673828125,-0.02402855083346367,-0.0013185273855924606,0.003954107873141766
1731517654638112800,4.89111279296875,-0.033896926790475845,-0.005232173018157482,-0.007634371053427458
1731517654648159700,4.90115966796875,-0.038880497217178345,-0.007419958710670471,-0.021480411291122437
1731517654658207700,4.911207763671875,-0.0422004796564579,0.00009154807776212692,-0.024590052664279938
1731517654668254700,4.921254638671875,-0.04504766687750816,0.002854045480489731,-0.03292681276798248
1731517654678302700,4.931302734375,-0.03835880383849144,-0.0017146151512861252,-0.035052016377449036
1731517654688349700,4.941349609375,-0.02968328818678856,-0.010397586040198803,-0.019588902592658997
1731517654698397700,4.951397705078125,-0.016336409375071526,-0.026687785983085632,0.007442585192620754
1731517654708445000,4.96144482421875,-0.009669184684753418,-0.028701137751340866,0.033655811101198196
1731517654718492700,4.97149267578125,-0.014495527371764183,-0.008279390633106232,0.037560004740953445
1731517654728539600,4.98153955078125,-0.02355613373219967,0.025214653462171555,0.016546329483389854
1731517654738587600,4.991587646484375,-0.02690228447318077,0.05071531981229782,-0.013087593019008636
1731517654748635000,5.001634765625,-0.029132414609193802,0.04866095632314682,-0.03165807947516441
1731517654758682600,5.0116826171875,-0.03270396217703819,0.027378488332033157,-0.02662404254078865
1731517654768729600,5.0217294921875,-0.034952469170093536,0.0022853855043649673,-0.004184247460216284
1731517654778776600,5.031776611328125,-0.036588698625564575,-0.005966473370790482,0.019950516521930695
1731517654788824800,5.041824951171875,-0.03470690920948982,-0.004091341979801655,0.025568988174200058
1731517654798871800,5.051871826171875,-0.03595764935016632,0.0055875820107758045,-0.004668142646551132
1731517654808919600,5.06191943359375,-0.03480183705687523,0.017800040543079376,-0.04871576279401779
1731517654818966500,5.071966552734375,-0.032743629068136215,0.006644659675657749,-0.07124783098697662
1731517654829014800,5.082014892578125,-0.025752030313014984,-0.012417448684573174,-0.06704243272542953
1731517654839061800,5.092061767578125,-0.018682237714529037,-0.022975672036409378,-0.04855663329362869
1731517654849109800,5.10210986328125,-0.004397574346512556,-0.03497587889432907,-0.03492631018161774
1731517654859156700,5.11215673828125,-0.014730937778949738,-0.046040937304496765,-0.045946475118398666
1731517654869204200,5.122204345703125,-0.020440755411982536,-0.025179065763950348,-0.029695600271224976
1731517654879251200,5.132251220703125,-0.009561940096318722,0.0037846695631742477,0.0029118771199136972
1731517654889299200,5.14229931640625,-0.0008147874614223838,0.025009263306856155,0.007843784987926483
1731517654899346200,5.15234619140625,0.011175078339874744,0.03214208409190178,0.001999346073716879
1731517654909394200,5.162394287109375,0.02097311243414879,0.009202945977449417,0.004736276809126139
1731517654919441200,5.172441162109375,0.01260792650282383,-0.02281704545021057,0.005981037393212318
1731517654929488100,5.182488037109375,-0.00769947562366724,-0.022776566445827484,0.004483808297663927
1731517654939536400,5.192536376953125,-0.03601120784878731,0.012218989431858063,-0.018287016078829765
1731517654949583400,5.202583251953125,-0.05264744535088539,0.05009766295552254,-0.04968888312578201
1731517654959631000,5.212631103515625,-0.05152445659041405,0.06634242087602615,-0.06887855380773544
1731517654969678000,5.222677978515625,-0.038987092673778534,0.04712957888841629,-0.060161493718624115
1731517654979726300,5.232726318359375,-0.025598812848329544,0.024828631430864334,-0.024964360520243645
1731517654989773300,5.242773193359375,-0.010868070647120476,0.019099639728665352,0.00960107147693634
1731517654999821300,5.2528212890625,0.005279870703816414,0.01106596365571022,0.04270416870713234
1731517655009868000,5.262867919921875,0.014979369938373566,0.00540701299905777,0.059459712356328964
1731517655019916300,5.272916259765625,0.008814351633191109,-0.004606465809047222,0.03680340200662613
1731517655029963300,5.28296337890625,0.0003873104869853705,-0.003824828192591667,-0.0026776958256959915
1731517655040011300,5.29301123046875,-0.005843071732670069,-0.002468540333211422,-0.05045786872506142
1731517655050058200,5.303058349609375,-0.008097703568637371,-0.00823561567813158,-0.08685129135847092
1731517655060105200,5.313105224609375,-0.011597131378948689,0.017274674028158188,-0.0919022485613823
1731517655070153200,5.3231533203125,-0.008524109609425068,0.03920713812112808,-0.08043947070837021
1731517655080200200,5.3332001953125,-0.007173269987106323,0.041412170976400375,-0.05357789248228073
1731517655090248400,5.34324853515625,0.008329789154231548,0.03299844637513161,-0.026477299630641937
1731517655100295400,5.35329541015625,0.02244359441101551,0.010750439949333668,-0.009057966060936451
1731517655110343200,5.36334326171875,0.02804156020283699,-0.014912579208612442,-0.0022176364436745644
1731517655120390100,5.37339013671875,0.02546004019677639,-0.01657017134130001,-0.003044677432626486
1731517655130438400,5.3834384765625,0.019523587077856064,0.005489324685186148,-0.01003520842641592
1731517655140485400,5.3934853515625,0.020944852381944656,0.03424055129289627,-0.021960310637950897
1731517655150533000,5.403533203125,0.028100766241550446,0.05155109614133835,-0.026258651167154312
1731517655160580000,5.413580078125,0.04041585326194763,0.05158664286136627,-0.01639137603342533
1731517655170628400,5.42362841796875,0.042111221700906754,0.05162791907787323,0.009190683253109455
1731517655180675300,5.43367529296875,0.03495921567082405,0.06359436362981796,0.02732880786061287
1731517655190723000,5.44372314453125,0.018504345789551735,0.06685353815555573,0.020328687503933907
1731517655200770000,5.45377001953125,0.012822957709431648,0.05814128369092941,-0.0018807430751621723
1731517655210817300,5.4638173828125,0.012258633971214294,0.03153150901198387,-0.03469914197921753
1731517655220865300,5.473865234375,0.009044199250638485,-0.007670753635466099,-0.06977777183055878
1731517655230912300,5.483912353515625,0.002474979031831026,-0.03197023272514343,-0.09987468272447586
1731517655240960000,5.4939599609375,-0.0035788188688457012,-0.029817476868629456,-0.12549349665641785
1731517655251007200,5.50400732421875,-0.0018094147089868784,-0.016537891700863838,-0.13607877492904663
1731517655261055200,5.51405517578125,0.002420519944280386,-0.005637151189148426,-0.1359698325395584
1731517655271102200,5.524102294921875,0.018205607309937477,0.014598079025745392,-0.12295150011777878
1731517655281150500,5.534150390625,0.03549191728234291,0.010958577506244183,-0.110744908452034
1731517655291197200,5.544197265625,0.0603938028216362,-0.0019548246636986732,-0.10569769144058228
1731517655301245200,5.5542451171875,0.08037524670362473,-0.005693690851330757,-0.09532640874385834
1731517655311292200,5.564292236328125,0.09098368883132935,-0.012888753786683083,-0.09748942404985428
1731517655321340400,5.57434033203125,0.10307236015796661,-0.02370430901646614,-0.10230109095573425
1731517655331387400,5.584387451171875,0.11139526963233948,-0.02905752882361412,-0.11126182973384857
1731517655341434400,5.594434326171875,0.10996399074792862,-0.03290567919611931,-0.13764363527297974
1731517655351482000,5.604482177734375,0.10212257504463196,-0.026502374559640884,-0.17731621861457825
1731517655361529300,5.614529296875,0.09445220232009888,-0.008852815255522728,-0.2083420306444168
1731517655371577300,5.624577392578125,0.0847332626581192,-0.0076410770416259766,-0.20502346754074097
1731517655381624300,5.634624267578125,0.08402244746685028,-0.027527084574103355,-0.1710992008447647
1731517655391672000,5.644672119140625,0.10060728341341019,-0.03998934477567673,-0.10870879143476486
1731517655401719300,5.65471923828125,0.11914492398500443,-0.045768290758132935,-0.03490034490823746
1731517655411767300,5.664767333984375,0.12843695282936096,-0.023259520530700684,0.014928460121154785
1731517655421814300,5.674814208984375,0.11976785212755203,0.00306257838383317,0.0021150626707822084
1731517655431862000,5.684862060546875,0.09138760715723038,0.01833953522145748,-0.06927469372749329
1731517655441909200,5.6949091796875,0.04964899644255638,0.014619439840316772,-0.15329836308956146
1731517655451957200,5.704957275390625,-0.006750626489520073,0.00970377679914236,-0.22864744067192078
1731517655462004200,5.715004150390625,-0.05012974143028259,-0.03311234712600708,-0.2995944619178772
1731517655472051200,5.72505126953125,-0.044416461139917374,-0.0405644029378891,-0.33058488368988037
1731517655482099200,5.73509912109375,-0.020806441083550453,-0.029552634805440903,-0.3178597688674927
1731517655492146200,5.745146240234375,0.005590279120951891,0.014048635959625244,-0.24606996774673462
1731517655502194200,5.755194091796875,0.043240804225206375,0.056976068764925,-0.12761376798152924
1731517655512241200,5.7652412109375,0.08345932513475418,0.09478256851434708,-0.02367006242275238
1731517655522289200,5.7752890625,0.10744300484657288,0.12209629267454147,0.019727079197764397
1731517655532336000,5.785336181640625,0.11716035008430481,0.13843344151973724,0.009460060857236385
1731517655542384000,5.795384033203125,0.11757872998714447,0.14806503057479858,-0.04143694415688515
1731517655552431400,5.805431396484375,0.11613743007183075,0.1365484595298767,-0.09485942125320435
1731517655562479400,5.815479248046875,0.11212395876646042,0.09248652309179306,-0.12236601114273071
1731517655572526300,5.8255263671875,0.09817245602607727,0.06358697265386581,-0.145542174577713
1731517655582574000,5.835573974609375,0.08877136558294296,0.027270520105957985,-0.15162722766399384
1731517655592621300,5.845621337890625,0.08119067549705505,-0.010692574083805084,-0.12452903389930725
1731517655602668300,5.855668212890625,0.07907486706972122,-0.03125671297311783,-0.07992561161518097
1731517655612716300,5.86571630859375,0.08907770365476608,-0.029007937759160995,-0.042168647050857544
1731517655622763300,5.87576318359375,0.09905651211738586,-0.006957839243113995,-0.021638205274939537
1731517655632811300,5.885811279296875,0.09321407228708267,0.01374211348593235,-0.020946582779288292
1731517655642858200,5.895858154296875,0.0761963352560997,0.022514577955007553,-0.03529861941933632
1731517655652906200,5.90590625,0.047220081090927124,0.006562510505318642,-0.06936471164226532
1731517655662953200,5.915953125,0.02468462660908699,-0.013710612431168556,-0.0899212509393692
1731517655673001200,5.926001220703125,0.01957668364048004,-0.030293315649032593,-0.08163882046937943
1731517655683048200,5.936048095703125,0.007226657588034868,-0.02227180451154709,-0.06812607496976852
1731517655693096200,5.94609619140625,0.0007021792116574943,0.04059264436364174,-0.053460314869880676
1731517655703143200,5.95614306640625,0.008543441072106361,0.09395314007997513,-0.032905105501413345
1731517655713191200,5.966191162109375,0.03271082788705826,0.10765430331230164,0.0065163359977304935
1731517655723238100,5.976238037109375,0.060310713946819305,0.08460456877946854,0.079896941781044
1731517655733285000,5.98628515625,0.08116912096738815,0.025009147822856903,0.14590498805046082
1731517655743333400,5.99633349609375,0.09847918897867203,-0.04448729380965233,0.13858674466609955
1731517655753380400,6.00638037109375,0.09252436459064484,-0.11616228520870209,0.09247598797082901
1731517655763428000,6.016427978515625,0.07014753669500351,-0.1485491693019867,0.030840184539556503
1731517655773475000,6.02647509765625,0.03624975308775902,-0.14257250726222992,-0.03222746402025223
1731517655783523300,6.0365234375,-0.006498341448605061,-0.11473754048347473,-0.09345939755439758
1731517655793570300,6.0465703125,-0.030395418405532837,-0.11206372827291489,-0.1341594159603119
1731517655803618300,6.056618408203125,-0.028573866933584213,-0.1255415380001068,-0.14472192525863647
1731517655813665000,6.0666650390625,-0.02001926116645336,-0.140586256980896,-0.1451360434293747
1731517655823713300,6.07671337890625,-0.00855916365981102,-0.13055753707885742,-0.1336933672428131
1731517655833760300,6.08676025390625,0.012187127955257893,-0.07147318124771118,-0.11588215082883835
1731517655843807200,6.09680712890625,0.04913169890642166,-0.02978697419166565,-0.07747244089841843
1731517655853855200,6.106855224609375,0.09187276661396027,-0.015934009104967117,-0.025542663410305977
1731517655863902200,6.116902099609375,0.11564476042985916,-0.02716781571507454,0.03526569530367851
1731517655873950200,6.1269501953125,0.09834486246109009,-0.0452919602394104,0.07080797851085663
1731517655883997400,6.13699755859375,0.058983564376831055,-0.06613822281360626,0.07159560173749924
1731517655894045400,6.14704541015625,0.008893500082194805,-0.0944308489561081,0.04016098007559776
1731517655904092400,6.157092529296875,-0.04292181506752968,-0.13375192880630493,0.01935570128262043
1731517655914140400,6.167140380859375,-0.07981884479522705,-0.15948951244354248,0.03403744101524353
1731517655924187400,6.1771875,-0.08876965939998627,-0.13997015357017517,0.08248353004455566
1731517655934235400,6.1872353515625,-0.06582439690828323,-0.10394211113452911,0.1405780017375946
1731517655944282400,6.197282470703125,-0.029099691659212112,-0.06440047919750214,0.1784706562757492
1731517655954330400,6.207330322265625,-0.0027591644320636988,-0.04175003245472908,0.1911747306585312
1731517655964377300,6.21737744140625,0.014812754467129707,-0.0436868816614151,0.1878989040851593
1731517655974424300,6.22742431640625,0.006882394198328257,-0.07103382050991058,0.17817330360412598
1731517655984472300,6.237472412109375,-0.020274009555578232,-0.10086088627576828,0.1506350338459015
1731517655994519600,6.24751953125,-0.03661436587572098,-0.13192585110664368,0.09749084711074829
1731517656004567300,6.2575673828125,-0.03256607428193092,-0.16620078682899475,0.06862685084342957
1731517656014614300,6.2676142578125,-0.014281079173088074,-0.1929815411567688,0.0778413861989975
1731517656024662300,6.277662353515625,0.006306689232587814,-0.1813374012708664,0.09848088026046753
1731517656034709500,6.28770947265625,0.03292098641395569,-0.1657336801290512,0.09169727563858032
1731517656044757200,6.29775732421875,0.05692899972200394,-0.16613803803920746,0.09836330264806747
1731517656054804200,6.30780419921875,0.06379809230566025,-0.15549737215042114,0.08651702851057053
1731517656064852200,6.317852294921875,0.05637538433074951,-0.15024632215499878,0.04922439157962799
1731517656074899500,6.3278994140625,0.04517412930727005,-0.12878923118114471,0.0075866663828492165
1731517656084947500,6.337947509765625,0.0362289659678936,-0.10514570027589798,-0.016478991135954857
1731517656094994400,6.347994384765625,0.029270391911268234,-0.1075257733464241,-0.025986742228269577
1731517656105041200,6.358041259765625,0.02841620147228241,-0.11533954739570618,-0.02687690407037735
1731517656115089400,6.36808935546875,0.04605751112103462,-0.1223553866147995,-0.051515668630599976
1731517656125136400,6.378136474609375,0.06323180347681046,-0.15056905150413513,-0.09128359705209732
1731517656135184400,6.388184326171875,0.0653332993388176,-0.19490481913089752,-0.1595230996608734
1731517656145231400,6.3982314453125,0.052142802625894547,-0.24140626192092896,-0.25002264976501465
1731517656155279400,6.408279296875,0.036315370351076126,-0.29333817958831787,-0.3516499400138855
1731517656165326300,6.418326416015625,0.020034240558743477,-0.34681349992752075,-0.42704346776008606
1731517656175374300,6.428374267578125,0.027659136801958084,-0.3660915791988373,-0.43618372082710266
1731517656185421600,6.438421630859375,0.05469049885869026,-0.3346293568611145,-0.40916183590888977
1731517656195469300,6.44846923828125,0.07692176848649979,-0.2510620355606079,-0.36433711647987366
1731517656205516300,6.458516357421875,0.08473176509141922,-0.16180706024169922,-0.26998382806777954
1731517656215563300,6.468563232421875,0.08061718195676804,-0.09421097487211227,-0.16457058489322662
1731517656225611500,6.478611572265625,0.0579005591571331,-0.06775351613759995,-0.09112752974033356
1731517656235658500,6.488658447265625,0.02952484041452408,-0.0410875529050827,-0.05442650616168976
1731517656245706200,6.498706298828125,0.004155302885919809,-0.0024927565827965736,-0.004364937078207731
1731517656255753200,6.508753173828125,-0.019126318395137787,0.023570802062749863,0.09272725880146027
1731517656265801500,6.518801513671875,-0.03302229195833206,0.06051682308316231,0.2425716072320938
1731517656275848400,6.528848388671875,-0.02254781685769558,0.10135825723409653,0.4073389768600464
1731517656285896200,6.538896240234375,-0.0031489164102822542,0.13667617738246918,0.517052948474884
1731517656295943200,6.548943115234375,0.009232917800545692,0.1431492567062378,0.552314817905426
1731517656305991400,6.558991455078125,0.012054219841957092,0.14180853962898254,0.552505373954773
1731517656316038400,6.569038330078125,-0.0010882137576118112,0.105515256524086,0.5312306880950928
1731517656326085400,6.57908544921875,-0.032836057245731354,0.043505020439624786,0.5091935992240906
1731517656336133000,6.589133056640625,-0.08386968076229095,-0.003233722411096096,0.4737298786640167
1731517656346180400,6.599180419921875,-0.14891056716442108,-0.03916338086128235,0.4047201871871948
1731517656356228400,6.609228271484375,-0.20940613746643066,-0.040040358901023865,0.2935984432697296
1731517656366275300,6.619275390625,-0.26576757431030273,-0.039501503109931946,0.16777966916561127
1731517656376323600,6.629323486328125,-0.30638688802719116,-0.034138165414333344,0.0421607531607151
1731517656386370300,6.639370361328125,-0.33188527822494507,0.004683848470449448,-0.08336854726076126
1731517656396418300,6.649418212890625,-0.3174096643924713,0.06822474300861359,-0.1769360452890396
1731517656406465300,6.65946533203125,-0.27363792061805725,0.12246573716402054,-0.2114570140838623
1731517656416513500,6.669513427734375,-0.20101910829544067,0.15974412858486176,-0.18274439871311188
1731517656426560500,6.679560546875,-0.13051030039787292,0.19227512180805206,-0.11339075863361359
1731517656436608300,6.689608154296875,-0.06744372099637985,0.2023344188928604,-0.00404615793377161
1731517656446655200,6.6996552734375,-0.018904658034443855,0.20182356238365173,0.09267652034759521
1731517656456702500,6.709702392578125,0.009447887539863586,0.20741593837738037,0.1270401030778885
1731517656466750500,6.71975048828125,0.013450749218463898,0.21874341368675232,0.07932796329259872
1731517656476797400,6.72979736328125,-0.0003883678582496941,0.21880599856376648,-0.007998955436050892
1731517656486845200,6.73984521484375,-0.03942794352769852,0.20576544106006622,-0.08285561949014664
1731517656496892400,6.749892333984375,-0.09861084073781967,0.18375840783119202,-0.11971962451934814
1731517656506940400,6.7599404296875,-0.15015414357185364,0.14063416421413422,-0.13208800554275513
1731517656516987400,6.7699873046875,-0.18070966005325317,0.08904528617858887,-0.12081911414861679
1731517656527035400,6.780035400390625,-0.18445536494255066,0.05828563868999481,-0.11049456894397736
1731517656537082400,6.790082275390625,-0.17779798805713654,0.06737314164638519,-0.1101776510477066
1731517656547130400,6.80013037109375,-0.19084025919437408,0.12131772935390472,-0.10984209179878235
1731517656557177300,6.81017724609375,-0.22054222226142883,0.18240238726139069,-0.12084227800369263
1731517656567225300,6.820225341796875,-0.23544584214687347,0.2190321683883667,-0.15344522893428802
1731517656577272300,6.830272216796875,-0.2145826369524002,0.22329136729240417,-0.1750626415014267
1731517656587319300,6.8403193359375,-0.1588493287563324,0.2104858160018921,-0.17632044851779938
1731517656597367300,6.8503671875,-0.09702697396278381,0.19743260741233826,-0.1514393389225006
1731517656607414300,6.860414306640625,-0.06310898810625076,0.16948924958705902,-0.11515670269727707
1731517656617462300,6.870462158203125,-0.038271550089120865,0.12017630785703659,-0.08990274369716644
1731517656627509200,6.88050927734375,-0.016684016212821007,0.08611706644296646,-0.08978063613176346
1731517656637557200,6.89055712890625,-0.0021221183706074953,0.07182734459638596,-0.11454936861991882
1731517656647604500,6.9006044921875,0.005399733316153288,0.09012266993522644,-0.11202695220708847
1731517656657652500,6.910652587890625,0.017723511904478073,0.09952842444181442,-0.08066157251596451
1731517656667699500,6.920699462890625,0.03128543868660927,0.07374134659767151,0.01340034231543541
1731517656677747200,6.930747314453125,0.028968755155801773,0.03163331001996994,0.10577767342329025
1731517656687794400,6.94079443359375,0.03822360932826996,0.0024212459102272987,0.15680278837680817
1731517656697841400,6.95084130859375,0.07330650091171265,-0.0002040984109044075,0.19582821428775787
1731517656707889400,6.960889404296875,0.09753620624542236,-0.0018656449392437935,0.22522152960300446
1731517656717936400,6.970936279296875,0.1232687309384346,0.02188868820667267,0.2260921150445938
1731517656727984400,6.980984375,0.141539067029953,0.08778567612171173,0.2052890956401825
1731517656738031400,6.99103125,0.1445939838886261,0.1819305568933487,0.16911004483699799
1731517656748079400,7.001079345703125,0.15814486145973206,0.2849883437156677,0.13530440628528595
1731517656758126300,7.011126220703125,0.18926681578159332,0.3693162798881531,0.06369440257549286
1731517656768174300,7.02117431640625,0.23206119239330292,0.4512367844581604,-0.00798284262418747
1731517656778221300,7.03122119140625,0.24204379320144653,0.5055745840072632,-0.04556670039892197
1731517656788269300,7.041269287109375,0.20930452644824982,0.5133615136146545,-0.04882508143782616
1731517656798316300,7.05131640625,0.1625969409942627,0.46953868865966797,-0.04024224355816841
1731517656808363500,7.061363525390625,0.11667764186859131,0.36641451716423035,-0.04771281033754349
1731517656818411300,7.071411376953125,0.0660829097032547,0.2223106026649475,-0.0781647264957428
1731517656828458200,7.081458251953125,0.012254522182047367,0.09840314835309982,-0.10028388351202011
1731517656838506500,7.091506591796875,-0.011872651986777782,0.04789630323648453,-0.07088737934827805
1731517656848553500,7.101553466796875,-0.009530101902782917,0.06009051203727722,0.041703350841999054
1731517656858601200,7.111601318359375,0.02003418281674385,0.08966491371393204,0.1905953586101532
1731517656868648200,7.121648193359375,0.09966028481721878,0.06575354188680649,0.3165358603000641
1731517656878696200,7.1316962890625,0.2306542545557022,-0.002848425880074501,0.3863255977630615
1731517656888743200,7.1417431640625,0.37206876277923584,-0.11354478448629379,0.3972558379173279
1731517656898791400,7.15179150390625,0.4831180274486542,-0.2161228209733963,0.39282700419425964
1731517656908838400,7.16183837890625,0.5338305234909058,-0.2974058985710144,0.37551769614219666
1731517656918885000,7.171885009765625,0.5150730609893799,-0.33304378390312195,0.35047465562820435
1731517656928933400,7.181933349609375,0.44223281741142273,-0.330949068069458,0.2809368371963501
1731517656938980400,7.19198046875,0.3397200107574463,-0.2970573902130127,0.16845451295375824
1731517656949028400,7.2020283203125,0.24859151244163513,-0.25572434067726135,0.07119427621364594
1731517656959075300,7.212075439453125,0.20812425017356873,-0.22853879630565643,0.038933806121349335
1731517656969123300,7.222123291015625,0.2211037129163742,-0.21570749580860138,0.09500999003648758
1731517656979170300,7.23217041015625,0.25552746653556824,-0.19237260520458221,0.18663018941879272
1731517656989218300,7.24221826171875,0.28308233618736267,-0.1497521698474884,0.25421321392059326
1731517656999265300,7.252265380859375,0.29966023564338684,-0.09858592599630356,0.2693125307559967
1731517657009313300,7.262313232421875,0.29922938346862793,-0.057220857590436935,0.24146799743175507
1731517657019360300,7.2723603515625,0.2965126931667328,-0.030675537884235382,0.20983576774597168
1731517657029407200,7.2824072265625,0.2711639106273651,-0.005437398329377174,0.15177592635154724
1731517657039455200,7.292455322265625,0.24678559601306915,0.010792437940835953,0.09764692187309265
1731517657049502500,7.30250244140625,0.22977860271930695,0.02646099403500557,0.07649342715740204
1731517657059550200,7.31255029296875,0.20805226266384125,0.04077388718724251,0.05665953457355499
1731517657069597200,7.32259716796875,0.2133421003818512,0.019500555470585823,0.04407157376408577
1731517657079645200,7.332645263671875,0.24113458395004272,-0.02649330161511898,0.03571616858243942
1731517657089692400,7.3426923828125,0.2606036067008972,-0.10413682460784912,0.027370888739824295
1731517657099740200,7.352740234375,0.25615957379341125,-0.17845048010349274,0.023919962346553802
1731517657109787100,7.362787109375,0.23200488090515137,-0.21533198654651642,0.052310992032289505
1731517657119835400,7.37283544921875,0.19959475100040436,-0.22724057734012604,0.09947530925273895
1731517657129882400,7.38288232421875,0.18722397089004517,-0.20479145646095276,0.14865218102931976
1731517657139929300,7.392929443359375,0.19930113852024078,-0.15319351851940155,0.17997094988822937
1731517657149977000,7.40297705078125,0.20102590322494507,-0.08943278342485428,0.2032930552959442
1731517657160024000,7.413024169921875,0.1753719300031662,-0.015265612863004208,0.20220834016799927
1731517657170072300,7.423072265625,0.12068353593349457,0.04387175664305687,0.15533724427223206
1731517657180119300,7.433119384765625,0.051697809249162674,0.0980934426188469,0.06650617718696594
1731517657190167300,7.443167236328125,-0.011209901422262192,0.1215992346405983,-0.05805160105228424
1731517657200214300,7.45321435546875,-0.07536385208368301,0.09536470472812653,-0.1730748564004898
1731517657210262300,7.46326220703125,-0.13044771552085876,0.020693250000476837,-0.23410172760486603
1731517657220309200,7.473309326171875,-0.18441613018512726,-0.09788239747285843,-0.2858557403087616
1731517657230357200,7.483357177734375,-0.23437723517417908,-0.2190980464220047,-0.28010809421539307
1731517657240404500,7.493404541015625,-0.27636703848838806,-0.2968796491622925,-0.2005903720855713
1731517657250451200,7.503451171875,-0.29842206835746765,-0.32271310687065125,-0.04844345152378082
1731517657260499200,7.513499267578125,-0.3071971833705902,-0.28800147771835327,0.14577928185462952
1731517657270546200,7.523546142578125,-0.31254926323890686,-0.17801769077777863,0.2885715961456299
1731517657280594400,7.533594482421875,-0.3196415305137634,-0.07030375301837921,0.3181188404560089
1731517657290641400,7.543641357421875,-0.2996594309806824,0.030953479930758476,0.26767510175704956
1731517657300689200,7.553689208984375,-0.2906166613101959,0.11874884366989136,0.19504563510417938
1731517657310736100,7.563736083984375,-0.2914374768733978,0.13249941170215607,0.1255781501531601
1731517657320784400,7.573784423828125,-0.29660481214523315,0.11721447110176086,0.06296403706073761
1731517657330831400,7.583831298828125,-0.31812581419944763,0.055763889104127884,-0.01912790536880493
1731517657340879000,7.593879150390625,-0.3652648329734802,-0.04114827513694763,-0.1593601107597351
1731517657350926000,7.603926025390625,-0.42202028632164,-0.14715394377708435,-0.3652893006801605
1731517657360973300,7.613973388671875,-0.45962250232696533,-0.20146457850933075,-0.5571831464767456
1731517657371021300,7.624021240234375,-0.4733563959598541,-0.15284471213817596,-0.587875247001648
1731517657381068300,7.634068359375,-0.45979371666908264,-0.0033526914194226265,-0.4278850555419922
1731517657391116300,7.6441162109375,-0.381881445646286,0.18934020400047302,-0.09873192012310028
1731517657401163300,7.654163330078125,-0.2386036515235901,0.31856638193130493,0.27360835671424866
1731517657411211300,7.664211181640625,-0.06818148493766785,0.31267061829566956,0.5214681029319763
1731517657421258200,7.67425830078125,0.09985145926475525,0.16595837473869324,0.6002470850944519
1731517657431306200,7.68430615234375,0.1911211609840393,-0.04081097990274429,0.510101318359375
1731517657441353200,7.694353271484375,0.15672031044960022,-0.24451510608196259,0.27868860960006714
1731517657451401200,7.704401123046875,0.031314656138420105,-0.3508412539958954,-0.04997902736067772
1731517657461448200,7.7144482421875,-0.09984442591667175,-0.36293813586235046,-0.33437398076057434
1731517657471495400,7.724495361328125,-0.20656949281692505,-0.3114698529243469,-0.43983209133148193
1731517657481543400,7.73454345703125,-0.26668718457221985,-0.24736304581165314,-0.3703393042087555
1731517657491590100,7.744590087890625,-0.2618471384048462,-0.1707257628440857,-0.17037028074264526
1731517657501638100,7.75463818359375,-0.18983685970306396,-0.07049795985221863,0.09122990071773529
1731517657511685400,7.764685302734375,-0.1201847642660141,0.009150662459433079,0.2856646180152893
1731517657521733400,7.7747333984375,-0.09006255120038986,0.07407347112894058,0.3267523944377899
1731517657531780400,7.7847802734375,-0.11160488426685333,0.13043799996376038,0.22933250665664673
1731517657541828000,7.794828125,-0.178105890750885,0.18663308024406433,0.06961900740861893
1731517657551875300,7.804875244140625,-0.25491610169410706,0.20379051566123962,-0.06825363636016846
1731517657561923300,7.81492333984375,-0.3045068383216858,0.18358458578586578,-0.1320054531097412
1731517657571970300,7.82497021484375,-0.30182310938835144,0.14371152222156525,-0.10934607684612274
1731517657582017300,7.835017333984375,-0.2567389905452728,0.09780767560005188,-0.020154153928160667
1731517657592065300,7.845065185546875,-0.1891072392463684,0.07999494671821594,0.09748952835798264
1731517657602112300,7.8551123046875,-0.1206410825252533,0.09564527869224548,0.20749406516551971
1731517657612160300,7.86516015625,-0.0850471556186676,0.1461399346590042,0.26688212156295776
1731517657622207200,7.875207275390625,-0.0782981738448143,0.22232657670974731,0.2413078099489212
1731517657632255200,7.885255126953125,-0.08924274146556854,0.2999611496925354,0.16415482759475708
1731517657642302200,7.89530224609375,-0.114835724234581,0.3453400731086731,0.07671580463647842
1731517657652350200,7.90535009765625,-0.1371038556098938,0.3191184401512146,0.02145334519445896
1731517657662397400,7.9153974609375,-0.1283942610025406,0.24707458913326263,0.01740427501499653
1731517657672445200,7.925445068359375,-0.0921022891998291,0.15608076751232147,0.0413636714220047
1731517657682492200,7.9354921875,-0.038819894194602966,0.08224224299192429,0.051851995289325714
1731517657692539100,7.9455390625,0.029003649950027466,0.050726331770420074,0.023607179522514343
1731517657702587400,7.95558740234375,0.07638049125671387,0.07197622954845428,-0.045455776154994965
1731517657712634400,7.96563427734375,0.09848150610923767,0.08707987517118454,-0.1213592067360878
1731517657722682000,7.97568212890625,0.10422008484601974,0.1431782841682434,-0.15219753980636597
1731517657732729000,7.98572900390625,0.11465676873922348,0.2206362783908844,-0.14832890033721924
1731517657742777300,7.99577734375,0.11711406707763672,0.269939661026001,-0.11763250082731247
1731517657752824300,8.00582421875,0.1024777814745903,0.30281591415405273,-0.062469251453876495
1731517657762872300,8.015872314453125,0.1093042641878128,0.3276251256465912,-0.008554087020456791
1731517657772919300,8.025919189453125,0.13008499145507812,0.345662921667099,0.018567413091659546
1731517657782967300,8.03596728515625,0.16204266250133514,0.3894974887371063,0.023676155135035515
1731517657793014300,8.04601416015625,0.21796101331710815,0.4357457756996155,0.016859261319041252
1731517657803061200,8.056061279296875,0.2859395444393158,0.46256381273269653,-0.004817270673811436
1731517657813109200,8.066109130859376,0.35884296894073486,0.4752069115638733,-0.038681235164403915
1731517657823156500,8.076156494140625,0.40682220458984375,0.48333966732025146,-0.0891510620713234
1731517657833204200,8.086204345703125,0.4229997992515564,0.4670189619064331,-0.14147698879241943
1731517657843251200,8.096251220703126,0.42926061153411865,0.4277682304382324,-0.20506714284420013
1731517657853299500,8.106299560546875,0.4036775529384613,0.38202977180480957,-0.29493576288223267
1731517657863346400,8.116346435546875,0.34734317660331726,0.31360384821891785,-0.39618250727653503
1731517657873394700,8.126394775390626,0.2937126159667969,0.22140738368034363,-0.4819723963737488
1731517657883441700,8.136441650390625,0.27565985918045044,0.12184697389602661,-0.47585591673851013
1731517657893490000,8.146489990234375,0.2749503254890442,0.055955659598112106,-0.3537695109844208
1731517657903537000,8.156536865234376,0.30846914649009705,0.06327562034130096,-0.08501636981964111
1731517657913583900,8.166583984375,0.4117633104324341,0.1645483672618866,0.3067645728588104
1731517657923631600,8.176631591796875,0.5349712371826172,0.2956573963165283,0.653670608997345
1731517657933678600,8.1866787109375,0.607218325138092,0.3685098886489868,0.8058476448059082
1731517657943726800,8.196726806640624,0.621269941329956,0.38882264494895935,0.7838126420974731
1731517657953773800,8.20677392578125,0.5799564719200134,0.31545794010162354,0.5859848856925964
1731517657963821600,8.216821533203126,0.49422797560691833,0.19139456748962402,0.27055877447128296
1731517657973868800,8.226868896484374,0.3587741255760193,0.04017387703061104,-0.0652887374162674
1731517657983916800,8.236916748046875,0.20734094083309174,-0.10697855800390244,-0.3350435197353363
1731517657993963800,8.2469638671875,0.09705842286348343,-0.21260815858840942,-0.43479645252227783
1731517658004010800,8.2570107421875,0.055023349821567535,-0.2558397650718689,-0.3751363456249237
1731517658014058800,8.267058837890625,0.07403404265642166,-0.23935262858867645,-0.20292796194553375
1731517658024105700,8.277105712890625,0.15858860313892365,-0.16004662215709686,0.005573049653321505
1731517658034153700,8.28715380859375,0.27478718757629395,-0.060382965952157974,0.17268599569797516
1731517658044200700,8.29720068359375,0.359815776348114,0.015924319624900818,0.2546516954898834
1731517658054248700,8.307248779296875,0.40294161438941956,0.04866904020309448,0.25320228934288025
1731517658064295700,8.317295654296874,0.4145074486732483,0.021857930347323418,0.21767225861549377
1731517658074343700,8.32734375,0.4039136469364166,-0.016818569973111153,0.15482711791992188
1731517658084390700,8.337390625,0.3876830041408539,-0.09515811502933502,0.08572553843259811
1731517658094439000,8.34743896484375,0.3753514289855957,-0.1880897730588913,0.021904218941926956
1731517658104485600,8.357485595703125,0.37470561265945435,-0.2715255618095398,-0.0027033896185457706
1731517658114532600,8.36753271484375,0.38538432121276855,-0.32033050060272217,0.045534178614616394
1731517658124580600,8.37758056640625,0.3915966749191284,-0.3319847583770752,0.1288924664258957
1731517658134627800,8.3876279296875,0.38239410519599915,-0.3028465211391449,0.18890905380249023
1731517658144675800,8.39767578125,0.35378268361091614,-0.25083231925964355,0.21486075222492218
1731517658154722800,8.407722900390626,0.3142610192298889,-0.17739331722259521,0.20207053422927856
1731517658164770800,8.417770751953125,0.2773759663105011,-0.1276358813047409,0.15567879378795624
1731517658174817800,8.42781787109375,0.22407297790050507,-0.12860146164894104,0.10621417313814163
1731517658184865800,8.43786572265625,0.17614805698394775,-0.17105865478515625,0.06472718715667725
1731517658194912800,8.447912841796875,0.1384282410144806,-0.22729477286338806,0.04457690939307213
1731517658204960800,8.457960693359375,0.11564064025878906,-0.30330005288124084,0.048993758857250214
1731517658215007700,8.4680078125,0.11207421869039536,-0.3748704493045807,0.055471766740083694
1731517658225054700,8.4780546875,0.10390124469995499,-0.4470708668231964,0.041929859668016434
1731517658235102700,8.488102783203125,0.08652950823307037,-0.5196681022644043,-0.015055131167173386
1731517658245149700,8.498149658203126,0.05530766770243645,-0.571997344493866,-0.10620741546154022
1731517658255197700,8.50819775390625,0.003452462609857321,-0.6076855659484863,-0.21305502951145172
1731517658265244700,8.51824462890625,-0.06424455344676971,-0.604041576385498,-0.3016330897808075
1731517658275292700,8.528292724609376,-0.14301621913909912,-0.5508118271827698,-0.33785462379455566
1731517658285340000,8.53833984375,-0.22202688455581665,-0.46765172481536865,-0.3016958236694336
1731517658295387600,8.5483876953125,-0.30501970648765564,-0.35318925976753235,-0.21493788063526154
1731517658305434600,8.5584345703125,-0.3818950653076172,-0.23301036655902863,-0.1389957070350647
1731517658315481600,8.568481689453124,-0.4364396631717682,-0.11518672853708267,-0.12978744506835938
1731517658325529900,8.57852978515625,-0.4542945623397827,-0.048429809510707855,-0.19858860969543457
1731517658335576800,8.588576904296875,-0.4308084547519684,-0.030232105404138565,-0.30442729592323303
1731517658345624600,8.59862451171875,-0.39001867175102234,-0.014206801541149616,-0.3766266405582428
1731517658355671600,8.608671630859375,-0.3472785949707031,0.01695883460342884,-0.3792338967323303
1731517658365719800,8.6187197265625,-0.3251757025718689,0.05229898542165756,-0.34816837310791016
1731517658375766800,8.628766845703124,-0.3345939815044403,0.0860852524638176,-0.33971643447875977
1731517658385814800,8.638814697265625,-0.3650621473789215,0.10586987435817719,-0.4033484160900116
1731517658395861500,8.648861572265625,-0.395500123500824,0.09380783140659332,-0.54953932762146
1731517658405909800,8.65890966796875,-0.4123651087284088,0.05444337800145149,-0.727148711681366
1731517658415956700,8.668956787109375,-0.3993251323699951,0.0396813340485096,-0.7386431694030762
1731517658426003700,8.679003662109375,-0.3721662163734436,0.11357419937849045,-0.4976081848144531
1731517658436052000,8.689052001953126,-0.2954302132129669,0.2571551501750946,-0.05274751037359238
1731517658446098700,8.6990986328125,-0.15017102658748627,0.38843220472335815,0.4349598288536072
1731517658456146700,8.709146728515625,-0.0073924618773162365,0.4162987768650055,0.7711241245269775
1731517658466193700,8.719193603515626,0.08902861922979355,0.3259292244911194,0.9138271808624268
1731517658476242000,8.729241943359375,0.07768838852643967,0.1176709532737732,0.8182583451271057
1731517658486289000,8.739288818359375,-0.031487368047237396,-0.12913590669631958,0.5289053916931152
1731517658496336600,8.749336669921876,-0.2116856426000595,-0.3229477107524872,0.1152605339884758
1731517658506383600,8.759383544921874,-0.3967231214046478,-0.3621443808078766,-0.2528389096260071
1731517658516430600,8.7694306640625,-0.5219948291778564,-0.3105900287628174,-0.42865270376205444
1731517658526478800,8.779478759765626,-0.5661234259605408,-0.2521440386772156,-0.42711710929870605
1731517658536525800,8.78952587890625,-0.5436670184135437,-0.16560202836990356,-0.2526673972606659
1731517658546573600,8.799573486328125,-0.46567502617836,-0.05834055319428444,0.01664554700255394
1731517658556620800,8.809620849609376,-0.3748959004878998,0.027908693999052048,0.2558860778808594
1731517658566668800,8.819668701171874,-0.3227485418319702,0.07659421116113663,0.35207679867744446
1731517658576715800,8.8297158203125,-0.3096245229244232,0.11554520577192307,0.30109164118766785
1731517658586763500,8.839763427734376,-0.32225802540779114,0.12209418416023254,0.2032545804977417
1731517658596810800,8.849810791015624,-0.360984206199646,0.1062479317188263,0.12951204180717468
1731517658606858800,8.859858642578125,-0.39269551634788513,0.0680193156003952,0.1311059445142746
1731517658616905700,8.86990576171875,-0.37383097410202026,0.03345659747719765,0.20550628006458282
1731517658626952700,8.87995263671875,-0.31974858045578003,0.01717296615242958,0.33035552501678467
1731517658637000700,8.890000732421875,-0.26388227939605713,0.023049432784318924,0.46304526925086975
1731517658647047700,8.900047607421875,-0.21043317019939423,0.08215723186731339,0.5497545599937439
1731517658657095700,8.910095703125,-0.17063887417316437,0.19016699492931366,0.550366222858429
1731517658667142700,8.920142578125,-0.1596248298883438,0.2948151230812073,0.46721377968788147
1731517658677190700,8.930190673828125,-0.1740608513355255,0.33964309096336365,0.3605327308177948
1731517658687237600,8.940237548828126,-0.22321002185344696,0.3278311789035797,0.24033895134925842
1731517658697285600,8.95028564453125,-0.29294201731681824,0.2400609701871872,0.11056231707334518
1731517658707332900,8.960332763671875,-0.33666178584098816,0.11639547348022461,0.021632708609104156
1731517658717379800,8.9703798828125,-0.3399115204811096,-0.006711737252771854,-0.005862432532012463
1731517658727427800,8.980427734375,-0.3093906342983246,-0.09406901150941849,-0.006651793606579304
1731517658737474600,8.990474609375,-0.25367265939712524,-0.11356371641159058,-0.020432043820619583
1731517658747522800,9.000522705078126,-0.19704505801200867,-0.12285521626472473,-0.06096615269780159
1731517658757569800,9.01056982421875,-0.1252390742301941,-0.10526692122220993,-0.11153745651245117
1731517658767617800,9.02061767578125,-0.05204474553465843,-0.07705552875995636,-0.15682531893253326
1731517658777664800,9.030664794921876,-0.0004258553381077945,-0.05153724178671837,-0.20683734118938446
1731517658787712800,9.040712646484375,0.03457020968198776,-0.0016967160627245903,-0.2570275366306305
1731517658797759700,9.050759765625,0.05189642682671547,0.050162069499492645,-0.3172147274017334
1731517658807807700,9.060807861328126,0.06381194293498993,0.12167859822511673,-0.35760074853897095
1731517658817854700,9.070854736328124,0.08207549154758453,0.2065781056880951,-0.3271327316761017
1731517658827902000,9.08090185546875,0.11769020557403564,0.25436267256736755,-0.24614892899990082
1731517658837949700,9.09094970703125,0.18042902648448944,0.2788477838039398,-0.15217795968055725
1731517658847996700,9.10099658203125,0.24625250697135925,0.3181973099708557,-0.10594947636127472
1731517658858044700,9.111044677734375,0.2727002799510956,0.39076584577560425,-0.14824967086315155
1731517658868092000,9.121091796875,0.28440994024276733,0.46289920806884766,-0.26075437664985657
1731517658878139400,9.131139404296874,0.27000683546066284,0.48327532410621643,-0.4221200942993164
1731517658888186600,9.1411865234375,0.24143430590629578,0.4542287588119507,-0.5867239236831665
1731517658898234600,9.151234619140626,0.20436492562294006,0.3383970558643341,-0.6932815909385681
1731517658908281600,9.161281494140624,0.16648651659488678,0.11645428836345673,-0.7306491732597351
1731517658918328600,9.17132861328125,0.15743446350097656,-0.14491185545921326,-0.7060965299606323
1731517658928376600,9.18137646484375,0.17436976730823517,-0.29945215582847595,-0.560940682888031
1731517658938423600,9.191423583984376,0.21527403593063354,-0.27365460991859436,-0.2846900522708893
1731517658948471600,9.201471435546875,0.2594934403896332,-0.098695307970047,0.08415694534778595
1731517658958518500,9.2115185546875,0.320404976606369,0.09417062997817993,0.4063449800014496
1731517658968566800,9.22156689453125,0.37477126717567444,0.19306817650794983,0.5237630009651184
1731517658978613500,9.231613525390625,0.3974771797657013,0.19000865519046783,0.4431569278240204
1731517658988661500,9.24166162109375,0.2794424295425415,-0.005485475994646549,0.23857873678207397
1731517658998708700,9.251708740234376,0.24129755795001984,-0.22002719342708588,0.06735825538635254
1731517659008755700,9.261755615234375,0.23360075056552887,-0.3101075291633606,-0.09114590287208557
1731517659018803700,9.2718037109375,0.17020739614963531,-0.437359482049942,-0.21466384828090668
1731517659028850400,9.281850341796876,0.17676064372062683,-0.5013395547866821,-0.19152656197547913
1731517659038898700,9.291898681640625,0.18568918108940125,-0.4517225921154022,-0.0687260776758194
1731517659048945700,9.301945556640625,0.18764899671077728,-0.37482568621635437,0.07675176113843918
1731517659058993700,9.31199365234375,0.21297626197338104,-0.23461319506168365,0.19794315099716187
1731517659069040600,9.32204052734375,0.253945529460907,-0.11573740839958191,0.24243073165416718
1731517659079088600,9.332088623046875,0.2676748037338257,-0.03951621055603027,0.23635858297348022
1731517659089135600,9.342135498046876,0.2556053698062897,0.010164794512093067,0.21510469913482666
1731517659099183600,9.35218359375,0.23568737506866455,0.01161168422549963,0.20953470468521118
1731517659109230600,9.362230712890625,0.213068887591362,-0.016179466620087624,0.21938706934452057
1731517659119277800,9.37227783203125,0.19149942696094513,-0.06412452459335327,0.23643037676811218
1731517659129325600,9.38232568359375,0.18249395489692688,-0.1245545744895935,0.2322460263967514
1731517659139372500,9.39237255859375,0.19304119050502777,-0.17317572236061096,0.22287768125534058
1731517659149420500,9.402420654296876,0.21023748815059662,-0.1900167614221573,0.21712657809257507
1731517659159467800,9.4124677734375,0.23184631764888763,-0.18069016933441162,0.2240583747625351
1731517659169515500,9.422515625,0.2611653208732605,-0.1425049751996994,0.24021631479263306
1731517659179562500,9.4325625,0.2823212146759033,-0.09910670667886734,0.24871832132339478
1731517659189610800,9.44261083984375,0.28872132301330566,-0.05598986893892288,0.24598485231399536
1731517659199657700,9.45265771484375,0.27656233310699463,-0.015322326682507992,0.2333521544933319
1731517659209704700,9.46270458984375,0.24653014540672302,-0.00510883703827858,0.180162712931633
1731517659219752400,9.47275244140625,0.19459912180900574,-0.020987462252378464,0.11189989000558853
1731517659229799400,9.48279931640625,0.11402305960655212,-0.08251580595970154,0.04263879358768463
1731517659239847700,9.49284765625,0.029892688617110252,-0.16269095242023468,-0.025105103850364685
1731517659249894700,9.502894775390626,-0.04405903443694115,-0.24192878603935242,-0.06706693768501282
1731517659259942700,9.512942626953125,-0.09784208983182907,-0.3382132053375244,-0.08513061702251434
1731517659269989400,9.5229892578125,-0.14676277339458466,-0.40494751930236816,-0.09484715759754181
1731517659280037600,9.53303759765625,-0.17072178423404694,-0.40254366397857666,-0.12316334992647171
1731517659290084600,9.543084716796875,-0.17056810855865479,-0.3618604242801666,-0.15612371265888214
1731517659300132600,9.553132568359375,-0.15695133805274963,-0.3114805519580841,-0.1977628916501999
1731517659310179600,9.5631796875,-0.1422373652458191,-0.26311808824539185,-0.2506902813911438
1731517659320226600,9.5732265625,-0.12506650388240814,-0.19797448813915253,-0.30181366205215454
1731517659330274600,9.583274658203125,-0.11913003772497177,-0.13551084697246552,-0.3596591055393219
1731517659340321500,9.593321533203126,-0.1507163643836975,-0.11283335089683533,-0.431946337223053
1731517659350369800,9.603369873046875,-0.20798256993293762,-0.10488008707761765,-0.4993456304073334
1731517659360416800,9.613416748046875,-0.26952213048934937,-0.09224820137023926,-0.5447432398796082
1731517659370464500,9.623464599609376,-0.29929545521736145,-0.060166433453559875,-0.5381697416305542
1731517659380511500,9.633511474609374,-0.2866346538066864,0.015100022777915001,-0.4546174705028534
1731517659390558700,9.643558837890625,-0.2400735318660736,0.14045128226280212,-0.3187483251094818
1731517659400606700,9.653606689453126,-0.19778753817081451,0.2512122094631195,-0.26939553022384644
1731517659410653700,9.66365380859375,-0.1819036453962326,0.3295424282550812,-0.38067811727523804
1731517659420701400,9.673701416015625,-0.1667117476463318,0.3720623552799225,-0.5999287366867065
1731517659430748700,9.683748779296875,-0.14909733831882477,0.2767752408981323,-0.8727853298187256
1731517659440796700,9.693796630859374,-0.21847762167453766,-0.006221760995686054,-1.0798853635787964
1731517659450843600,9.70384375,-0.26915037631988525,-0.2667774558067322,-1.0469436645507812
1731517659460891600,9.7138916015625,-0.25508612394332886,-0.33618754148483276,-0.7170307040214539
1731517659470938600,9.723938720703124,-0.15387775003910065,-0.20009177923202515,-0.09489922970533371
1731517659480986600,9.733986572265625,0.050297487527132034,0.1117156520485878,0.6708014011383057
1731517659491033600,9.74403369140625,0.28777769207954407,0.37103351950645447,1.24684739112854
1731517659501080600,9.75408056640625,0.4779493510723114,0.46155062317848206,1.4930074214935303
1731517659511128600,9.764128662109375,0.584710419178009,0.43634167313575745,1.458745002746582
1731517659521175600,9.774175537109375,0.5429991483688354,0.2369060516357422,1.1759439706802368
1731517659531223600,9.7842236328125,0.3563128709793091,0.0005670227110385895,0.7512317895889282
1731517659541270500,9.7942705078125,0.09356265515089035,-0.1411827653646469,0.2850973904132843
1731517659551318500,9.804318603515625,-0.1818510740995407,-0.19281692802906036,-0.14068694412708282
1731517659561365500,9.814365478515626,-0.3833775818347931,-0.17856942117214203,-0.3913162350654602
1731517659571413500,9.82441357421875,-0.44182145595550537,-0.17780935764312744,-0.47006484866142273
1731517659581460700,9.834460693359375,-0.37711286544799805,-0.14704278111457825,-0.3762345016002655
1731517659591507700,9.8445078125,-0.2558263838291168,-0.05865566432476044,-0.14485852420330048
1731517659601555700,9.8545556640625,-0.13383367657661438,0.02619914896786213,0.10445781797170639
1731517659611602400,9.8646025390625,-0.057044617831707,0.10669957846403122,0.28812697529792786
1731517659621650700,9.874650634765626,-0.03455550968647003,0.18174095451831818,0.34623104333877563
1731517659631697700,9.88469775390625,-0.0532839260995388,0.23143820464611053,0.2852313220500946
1731517659641745700,9.89474560546875,-0.08876974135637283,0.26129329204559326,0.17684386670589447
1731517659651792600,9.904792724609376,-0.15152686834335327,0.26752057671546936,0.05790017917752266
1731517659661840600,9.914840576171875,-0.19851438701152802,0.23962517082691193,-0.021484924480319023
1731517659671887600,9.9248876953125,-0.20827913284301758,0.20796683430671692,-0.02699900045990944
1731517659681934600,9.9349345703125,-0.2004121094942093,0.15906699001789093,0.01676192507147789
1731517659691982600,9.944982666015624,-0.17599040269851685,0.13802935183048248,0.09325483441352844
1731517659702029800,9.95502978515625,-0.12673790752887726,0.13428474962711334,0.17074815928936005
1731517659712077600,9.96507763671875,-0.07331621646881104,0.15693147480487823,0.21622003614902496
1731517659722124500,9.97512451171875,-0.023998113349080086,0.1713387817144394,0.21852074563503265
1731517659732172500,9.985172607421875,0.008955043740570545,0.1761774718761444,0.15560728311538696
1731517659742219800,9.9952197265625,0.013486986979842186,0.185234934091568,0.06717155873775482
1731517659752267500,10.005267578125,-0.006560756824910641,0.1936742216348648,-0.028834858909249306
1731517659762314500,10.015314453125,-0.034463364630937576,0.20440952479839325,-0.11437971889972687
1731517659772361500,10.025361572265625,-0.051606934517621994,0.20005951821804047,-0.16968584060668945
1731517659782409700,10.03540966796875,-0.06197180971503258,0.17806784808635712,-0.173283651471138
1731517659792456700,10.045456787109375,-0.057851362973451614,0.12633275985717773,-0.14955168962478638
1731517659802504400,10.05550439453125,-0.041460562497377396,0.08176630735397339,-0.1060943454504013
1731517659812551400,10.065551513671876,-0.0029549808241426945,0.04319228231906891,-0.08674541860818863
1731517659822599700,10.075599609375,0.05083781108260155,0.048785824328660965,-0.11029282957315445
1731517659832646700,10.085646728515625,0.10813545435667038,0.07478440552949905,-0.16749674081802368
1731517659842694400,10.0956943359375,0.17964576184749603,0.13453468680381775,-0.2070382833480835
1731517659852741600,10.10574169921875,0.23892240226268768,0.20058295130729675,-0.2129635512828827
1731517659862788600,10.11578857421875,0.2870800197124481,0.2695489823818207,-0.1827840656042099
1731517659872836600,10.125836669921876,0.3475108742713928,0.3319612145423889,-0.1584174782037735
1731517659882883600,10.135883544921874,0.4160144031047821,0.372303307056427,-0.17158842086791992
1731517659892931600,10.145931640625,0.46855539083480835,0.4321437478065491,-0.20623454451560974
1731517659902978300,10.155978271484376,0.48460203409194946,0.5043880343437195,-0.23579096794128418
1731517659913026600,10.166026611328125,0.4924048185348511,0.5414677262306213,-0.29266780614852905
1731517659923073500,10.176073486328125,0.49754399061203003,0.530727207660675,-0.34378814697265625
1731517659933121500,10.18612158203125,0.48248302936553955,0.5014310479164124,-0.38062363862991333
1731517659943168800,10.196168701171874,0.43625596165657043,0.4034053683280945,-0.3874569237232208
1731517659953215500,10.206215576171875,0.39174386858940125,0.27134212851524353,-0.31073710322380066
1731517659963263500,10.216263427734376,0.3777107000350952,0.14043466746807098,-0.13265566527843475
1731517659973310500,10.226310546875,0.38219279050827026,0.06342482566833496,0.11489688605070114
1731517659983358700,10.236358642578125,0.4031873941421509,0.050599511712789536,0.37676966190338135
1731517659993405700,10.24640576171875,0.44906938076019287,0.08885502815246582,0.5724678039550781
1731517660003453400,10.256453369140624,0.4850616753101349,0.17278914153575897,0.648809015750885
1731517660013500400,10.26650048828125,0.5055381655693054,0.21658962965011597,0.577824592590332
1731517660023548700,10.276548583984376,0.5100030303001404,0.1532185673713684,0.380053848028183
1731517660033595600,10.286595703125,0.49419471621513367,0.027676090598106384,0.10934272408485413
1731517660043642600,10.296642578125,0.42433369159698486,-0.1129940077662468,-0.1549074351787567
1731517660053690400,10.3066904296875,0.31965601444244385,-0.21234695613384247,-0.318144828081131
1731517660063737600,10.316737548828126,0.2198590785264969,-0.2576132118701935,-0.3380388915538788
1731517660073785600,10.32678564453125,0.15435783565044403,-0.2699519097805023,-0.27343326807022095
1731517660083832600,10.33683251953125,0.14026884734630585,-0.21450524032115936,-0.16344699263572693
1731517660093880300,10.34688037109375,0.15488187968730927,-0.15196090936660767,-0.060036979615688324
1731517660103927600,10.356927490234375,0.1759096086025238,-0.10993736237287521,-0.0031176386401057243
1731517660113975600,10.3669755859375,0.2032078057527542,-0.07112232595682144,-0.00665964325889945
1731517660124022500,10.3770224609375,0.22833885252475739,-0.05856873095035553,-0.04337957873940468
1731517660134069500,10.387069580078125,0.24644088745117188,-0.06379864364862442,-0.08033572882413864
1731517660144117500,10.397117431640625,0.24424558877944946,-0.09648468345403671,-0.08577922731637955
1731517660154164500,10.40716455078125,0.2568551301956177,-0.1436162292957306,-0.052618883550167084
1731517660164212500,10.41721240234375,0.2856486439704895,-0.1792864054441452,0.012065978720784187
1731517660174259500,10.427259521484375,0.3395366370677948,-0.20328973233699799,0.13448722660541534
1731517660184307500,10.437307373046876,0.38639935851097107,-0.2053270787000656,0.2916710078716278
1731517660194354400,10.4473544921875,0.4024534225463867,-0.1899758130311966,0.43798375129699707
1731517660204402400,10.45740234375,0.40638267993927,-0.13347983360290527,0.5368127226829529
1731517660214449400,10.467449462890626,0.38579562306404114,-0.1029011607170105,0.5668787360191345
1731517660224496600,10.47749658203125,0.32845473289489746,-0.09854650497436523,0.5557531118392944
1731517660234544600,10.487544677734375,0.2651655077934265,-0.11739874631166458,0.519170343875885
1731517660244591400,10.49759130859375,0.1876250058412552,-0.1355748176574707,0.437546044588089
1731517660254639600,10.5076396484375,0.12379968166351318,-0.14017382264137268,0.33077698945999146
1731517660264686600,10.5176865234375,0.08572471141815186,-0.14592060446739197,0.22568504512310028
1731517660274734600,10.527734619140626,0.07712190598249435,-0.17882102727890015,0.15180310606956482
1731517660284781600,10.537781494140624,0.08377533406019211,-0.2398049384355545,0.14054232835769653
1731517660294829600,10.54782958984375,0.09114935994148254,-0.33528831601142883,0.13645783066749573
1731517660304876500,10.55787646484375,0.09187176078557968,-0.40693914890289307,0.0952647253870964
1731517660314923500,10.567923583984374,0.08459653705358505,-0.42625078558921814,0.04414854571223259
1731517660324971500,10.577971435546875,0.05490492656826973,-0.403300404548645,-0.00020893506007269025
1731517660335018800,10.588018798828125,0.01025516726076603,-0.34144291281700134,-0.02815455012023449
1731517660345066500,10.59806640625,-0.03449251875281334,-0.24665327370166779,-0.03471231088042259
1731517660355113500,10.608113525390625,-0.07565673440694809,-0.18346524238586426,-0.048933856189250946
1731517660365161500,10.618161376953125,-0.11249624192714691,-0.16981974244117737,-0.06890596449375153
1731517660375208700,10.628208740234374,-0.15291368961334229,-0.2033984661102295,-0.0883912518620491
1731517660385256400,10.63825634765625,-0.19812752306461334,-0.2422918975353241,-0.11848591268062592
1731517660395303400,10.648303466796875,-0.2214096635580063,-0.23176148533821106,-0.16028821468353271
1731517660405350400,10.658350341796876,-0.2351391315460205,-0.17448751628398895,-0.21636320650577545
1731517660415398700,10.668398681640625,-0.2466610223054886,-0.061089858412742615,-0.27162882685661316
1731517660425445600,10.678445556640625,-0.2768818438053131,0.07043187320232391,-0.3272717595100403
1731517660435493400,10.688493408203126,-0.31352266669273376,0.18532544374465942,-0.42571523785591125
1731517660445540400,10.698540283203124,-0.3083812892436981,0.22331349551677704,-0.5772995352745056
1731517660455588600,10.708588623046875,-0.2996431887149811,0.21325872838497162,-0.7211451530456543
1731517660465635600,10.718635498046876,-0.32036292552948,0.12818652391433716,-0.7931827306747437
1731517660475683300,10.728683349609375,-0.36309146881103516,0.01737719215452671,-0.7615901827812195
1731517660485730300,10.738730224609375,-0.4121321737766266,-0.01996786519885063,-0.6449925899505615
1731517660495777500,10.748777587890626,-0.44413647055625916,0.0843936949968338,-0.44032570719718933
1731517660505825500,10.758825439453124,-0.4145975410938263,0.2634175717830658,-0.15608453750610352
1731517660515872500,10.76887255859375,-0.32945922017097473,0.4391992688179016,0.12089725583791733
1731517660525920500,10.77892041015625,-0.18746858835220337,0.5104972124099731,0.2939637005329132
1731517660535967500,10.788967529296874,-0.038367003202438354,0.45499187707901,0.338620126247406
1731517660546015500,10.799015380859375,0.02765907347202301,0.23625178635120392,0.2300070822238922
1731517660556062500,10.8090625,0.0014186813496053219,-0.05044548213481903,0.0016322408337146044
1731517660566110700,10.81911083984375,-0.07361187040805817,-0.29574525356292725,-0.2710866332054138
1731517660576157700,10.82915771484375,-0.16081413626670837,-0.3845084011554718,-0.4578559994697571
1731517660586204400,10.839204345703125,-0.2262144684791565,-0.37267962098121643,-0.503092348575592
1731517660596252400,10.84925244140625,-0.25930875539779663,-0.2868531346321106,-0.4213811755180359
1731517660606299600,10.859299560546875,-0.22850604355335236,-0.17812485992908478,-0.24579672515392303
1731517660616347600,10.86934765625,-0.15766462683677673,-0.07578730583190918,-0.06438831239938736
1731517660626394600,10.87939453125,-0.10767810046672821,0.003476614598184824,0.026803644374012947
1731517660636442400,10.8894423828125,-0.10031712800264359,0.06499110907316208,0.009890440851449966
1731517660646489600,10.899489501953125,-0.11809827387332916,0.12081341445446014,-0.05765092372894287
1731517660656537600,10.90953759765625,-0.1480194330215454,0.14023825526237488,-0.09315964579582214
1731517660666584600,10.91958447265625,-0.17602863907814026,0.10288349539041519,-0.0685654878616333
1731517660676631600,10.929631591796875,-0.18724267184734344,0.024243010208010674,0.02572612836956978
1731517660686679600,10.939679443359376,-0.17018094658851624,-0.045445650815963745,0.16388161480426788
1731517660696726500,10.9497265625,-0.13100212812423706,-0.07112251222133636,0.3020450472831726
1731517660706774500,10.9597744140625,-0.10581862926483154,-0.022119488567113876,0.4057076871395111
1731517660716821500,10.969821533203126,-0.09073235094547272,0.09590808302164078,0.4282446801662445
1731517660726869500,10.979869384765625,-0.08471649885177612,0.24204909801483154,0.3687841594219208
1731517660736916500,10.98991650390625,-0.09337469935417175,0.3629057705402374,0.277982622385025
1731517660746964500,10.999964599609376,-0.1268049031496048,0.42464181780815125,0.18804046511650085
1731517660757011500,11.010011474609374,-0.1758296936750412,0.4167322516441345,0.09973430633544922
1731517660767058700,11.02005859375,-0.20519623160362244,0.32831040024757385,0.03546703979372978
1731517660777106400,11.0301064453125,-0.19960305094718933,0.1960677057504654,0.012854671105742455
1731517660787153400,11.0401533203125,-0.18511708080768585,0.04202226176857948,0.030023401603102684
1731517660797201700,11.05020166015625,-0.16536015272140503,-0.09259094297885895,0.07146591693162918
1731517660807248600,11.06024853515625,-0.15179479122161865,-0.13830602169036865,0.11386463791131973
1731517660817296400,11.07029638671875,-0.1409892737865448,-0.09595217555761337,0.1845577210187912
1731517660827343400,11.08034326171875,-0.11422938108444214,0.060154400765895844,0.29290804266929626
1731517660837391600,11.0903916015625,-0.09190437197685242,0.20677153766155243,0.3600758910179138
1731517660847438600,11.1004384765625,-0.05442153662443161,0.34589147567749023,0.31640511751174927
1731517660857485600,11.110485595703125,0.010380093939602375,0.4460180699825287,0.18511205911636353
1731517660867533600,11.120533447265625,0.08028615266084671,0.49546492099761963,0.05170353129506111
1731517660877580000,11.130580078125,0.10750126093626022,0.5064371228218079,-0.00318315252661705
1731517660887628000,11.1406279296875,0.11451468616724014,0.46654173731803894,0.033173128962516785
1731517660897675000,11.150675048828125,0.14209972321987152,0.35982540249824524,0.12069738656282425
1731517660907723000,11.160722900390626,0.19244937598705292,0.26584893465042114,0.17584547400474548
1731517660917770000,11.17077001953125,0.23785173892974854,0.2615407407283783,0.14089441299438477
1731517660927817000,11.18081689453125,0.25178495049476624,0.32783448696136475,0.018043305724859238
1731517660937865000,11.190864990234376,0.26564592123031616,0.4253016710281372,-0.1470114290714264
1731517660947912000,11.200911865234374,0.2888326346874237,0.4792153239250183,-0.30248770117759705
1731517660957960000,11.2109599609375,0.2842456102371216,0.5002428293228149,-0.44133105874061584
1731517660968007200,11.221007080078126,0.27656519412994385,0.4782560467720032,-0.5137820839881897
1731517660978055000,11.231054931640625,0.2788403332233429,0.3677945137023926,-0.4723861813545227
1731517660988102000,11.241101806640625,0.31421220302581787,0.23800042271614075,-0.2718544006347656
1731517660998150000,11.25114990234375,0.39252832531929016,0.163224995136261,0.07549181580543518
1731517661008197000,11.261197021484374,0.521508514881134,0.1625371128320694,0.4501327872276306
1731517661018244000,11.271244140625,0.6519117951393127,0.19273896515369415,0.7084863185882568
1731517661028291800,11.281291748046876,0.7411363124847412,0.18470366299152374,0.7587694525718689
1731517661038338800,11.2913388671875,0.7755683660507202,0.12524326145648956,0.6242569088935852
1731517661048387000,11.301386962890625,0.7418249249458313,0.010099425911903381,0.3863387703895569
1731517661058434000,11.31143408203125,0.6232370138168335,-0.11144404858350754,0.12459824979305267
1731517661068482000,11.32148193359375,0.4446243941783905,-0.2218688279390335,-0.09817305207252502
1731517661078528800,11.33152880859375,0.2745429575443268,-0.2990778684616089,-0.21676388382911682
1731517661088577000,11.341576904296875,0.15343764424324036,-0.300722599029541,-0.21784164011478424
1731517661098624000,11.3516240234375,0.10238432139158249,-0.25617778301239014,-0.1596747487783432
1731517661108671000,11.3616708984375,0.11453748494386673,-0.1666766256093979,-0.05376577004790306
1731517661118719000,11.371718994140625,0.14396274089813232,-0.05599404498934746,0.07038573920726776
1731517661128766000,11.381765869140626,0.15229541063308716,0.0389975905418396,0.14764218032360077
1731517661138814000,11.39181396484375,0.13487061858177185,0.07879400253295898,0.13586381077766418
1731517661148861000,11.40186083984375,0.11726024746894836,0.09223689883947372,0.0765063464641571
1731517661158909200,11.4119091796875,0.08043405413627625,0.07406934350728989,-0.000864607107359916
1731517661168956200,11.4219560546875,0.03527807071805,0.01508827693760395,-0.08952748775482178
1731517661179004000,11.43200390625,0.007027790416032076,-0.060416869819164276,-0.15304973721504211
1731517661189051000,11.44205078125,0.02361774630844593,-0.13831406831741333,-0.1287742257118225
1731517661199097900,11.452097900390624,0.0817636027932167,-0.18727441132068634,-0.026135198771953583
1731517661209146000,11.46214599609375,0.16086822748184204,-0.20569132268428802,0.11736856400966644
1731517661219193000,11.472193115234376,0.2466241419315338,-0.18761484324932098,0.2676001489162445
1731517661229240800,11.48224072265625,0.3052736222743988,-0.13084571063518524,0.3677387237548828
1731517661239288000,11.4922880859375,0.32228243350982666,-0.0899006724357605,0.39553573727607727
1731517661249336000,11.502336181640626,0.3074440062046051,-0.0774313434958458,0.367051899433136
1731517661259383000,11.512383056640624,0.2694612145423889,-0.08748264610767365,0.3252647817134857
1731517661269430000,11.522429931640625,0.20285485684871674,-0.1163652241230011,0.3000543415546417
1731517661279478000,11.53247802734375,0.12480505555868149,-0.1534939557313919,0.2933032512664795
1731517661289525000,11.54252490234375,0.034376177936792374,-0.17329815030097961,0.2715902030467987
1731517661299573000,11.552572998046875,-0.028006237000226974,-0.20006664097309113,0.21061742305755615
1731517661309620000,11.562619873046875,-0.064942866563797,-0.2279026061296463,0.14595414698123932
1731517661319668000,11.57266796875,-0.1097649335861206,-0.23693445324897766,0.10193661600351334
1731517661329715000,11.58271484375,-0.17540490627288818,-0.2523646056652069,0.060209281742572784
1731517661339763000,11.592762939453126,-0.2373470962047577,-0.27730828523635864,0.016214922070503235
1731517661349810000,11.602809814453124,-0.27766135334968567,-0.31935742497444153,-0.052914753556251526
1731517661359857200,11.612857177734375,-0.29074519872665405,-0.38727736473083496,-0.12135027348995209
1731517661369905000,11.62290478515625,-0.301775187253952,-0.4402162730693817,-0.1406673789024353
1731517661379951900,11.632951904296876,-0.2990497052669525,-0.4466797709465027,-0.14582405984401703
1731517661389999900,11.642999755859375,-0.2919262647628784,-0.3951066732406616,-0.18822385370731354
1731517661400047000,11.653047119140625,-0.2871304452419281,-0.29055601358413696,-0.24088706076145172
1731517661410095000,11.66309521484375,-0.28820937871932983,-0.1663046032190323,-0.27126544713974
1731517661420141800,11.673141845703125,-0.28113096952438354,-0.08560390770435333,-0.2799034118652344
1731517661430190000,11.683190185546875,-0.2596607804298401,-0.08382685482501984,-0.2817624509334564
1731517661440237000,11.693237060546876,-0.21954530477523804,-0.09613598883152008,-0.26433607935905457
1731517661450284000,11.703283935546875,-0.19833402335643768,-0.11659306287765503,-0.24210265278816223
1731517661460332000,11.71333203125,-0.20533627271652222,-0.14651553332805634,-0.2843521237373352
1731517661470378800,11.723378662109376,-0.23832988739013672,-0.1607193797826767,-0.3914135992527008
1731517661480427000,11.733427001953125,-0.31250426173210144,-0.15831559896469116,-0.5463847517967224
1731517661490474000,11.743473876953125,-0.42626145482063293,-0.1707967221736908,-0.7228867411613464
1731517661500522000,11.75352197265625,-0.5444019436836243,-0.19292466342449188,-0.8389696478843689
1731517661510569200,11.7635693359375,-0.613082766532898,-0.1366771012544632,-0.7724047303199768
1731517661520617000,11.773616943359375,-0.6199579834938049,-0.02930191159248352,-0.5187903046607971
1731517661530664000,11.783663818359376,-0.490215927362442,0.11485714465379715,-0.09891260415315628
1731517661540711000,11.7937109375,-0.2568820118904114,0.23858121037483215,0.37973281741142273
1731517661550759200,11.80375927734375,-0.028169335797429085,0.2828037440776825,0.7293098568916321
1731517661560806100,11.81380615234375,0.13422410190105438,0.2055656611919403,0.8689724206924438
1731517661570854000,11.82385400390625,0.18309670686721802,0.05173863098025322,0.8021815419197083
1731517661580900900,11.83390087890625,0.10959159582853317,-0.13788670301437378,0.5414854884147644
1731517661590949000,11.84394921875,-0.05320483073592186,-0.29286888241767883,0.16140086948871613
1731517661600996000,11.85399609375,-0.24360327422618866,-0.3514917194843292,-0.23478402197360992
1731517661611043000,11.86404296875,-0.40197521448135376,-0.32871097326278687,-0.5232308506965637
1731517661621090800,11.8740908203125,-0.4707449674606323,-0.2958821952342987,-0.638950526714325
1731517661631138000,11.884137939453124,-0.46107208728790283,-0.30143478512763977,-0.5973707437515259
1731517661641186000,11.89418603515625,-0.3981764614582062,-0.2826552391052246,-0.40503671765327454
1731517661651233000,11.90423291015625,-0.32755643129348755,-0.23750044405460358,-0.16772136092185974
1731517661661280800,11.91428076171875,-0.26165011525154114,-0.17167028784751892,0.04040680453181267
1731517661671328000,11.924327880859375,-0.2170991450548172,-0.07582113891839981,0.18679223954677582
1731517661681376000,11.9343759765625,-0.20460279285907745,0.018207356333732605,0.2412291169166565
1731517661691423000,11.944423095703126,-0.20540578663349152,0.09472271800041199,0.23883934319019318
1731517661701470000,11.954469970703125,-0.19636516273021698,0.14193284511566162,0.21153448522090912
1731517661711518000,11.96451806640625,-0.16464358568191528,0.1597754806280136,0.19771453738212585
1731517661721565000,11.97456494140625,-0.12174060195684433,0.16670262813568115,0.19932734966278076
1731517661731613000,11.984613037109375,-0.08142558485269547,0.1662876456975937,0.2037011981010437
1731517661741660000,11.994659912109375,-0.04317912831902504,0.17939253151416779,0.19729629158973694
1731517661751708000,12.0047080078125,-0.014010676182806492,0.21056169271469116,0.17355035245418549
1731517661761755000,12.0147548828125,-0.005611865781247616,0.2249310463666916,0.14211945235729218
1731517661771803000,12.024802978515625,-0.013158404268324375,0.2183799296617508,0.12409171462059021
1731517661781850000,12.03485009765625,-0.040799085050821304,0.21181364357471466,0.1037137359380722
1731517661791897000,12.04489697265625,-0.06457019597291946,0.1986059546470642,0.05809911713004112
1731517661801945000,12.054945068359375,-0.0642242506146431,0.1971161812543869,0.003013760084286332
1731517661811991800,12.06499169921875,-0.0588873066008091,0.20428527891635895,-0.020407142117619514
1731517661822040000,12.0750400390625,-0.05102059617638588,0.1857243776321411,-0.015343408100306988
1731517661832087000,12.085087158203125,-0.021260779350996017,0.14511817693710327,-0.013599168509244919
1731517661842135000,12.095135009765626,0.03775966539978981,0.0966571718454361,-0.03576891869306564
1731517661852182000,12.10518212890625,0.10662295669317245,0.08302702754735947,-0.07611701637506485
1731517661862229000,12.11522900390625,0.18504105508327484,0.11795225739479065,-0.09606356173753738
1731517661872277000,12.125277099609375,0.23713798820972443,0.1848774403333664,-0.11002689599990845
1731517661882325000,12.135324951171874,0.2664386034011841,0.2648569643497467,-0.1296623796224594
1731517661892372700,12.145372802734375,0.2663296163082123,0.32889872789382935,-0.19021081924438477
1731517661902419700,12.155419677734375,0.2380729764699936,0.3488817512989044,-0.2649383246898651
1731517661912468000,12.165468017578124,0.19454054534435272,0.3015555441379547,-0.30803120136260986
1731517661922515000,12.175514892578125,0.16063851118087769,0.21843081712722778,-0.27907225489616394
1731517661932563000,12.18556298828125,0.15255309641361237,0.13749408721923828,-0.19889259338378906
1731517661942609700,12.195609619140624,0.18949033319950104,0.13945336639881134,-0.1391485631465912
1731517661952656600,12.20565673828125,0.25653010606765747,0.27185410261154175,-0.12532076239585876
1731517661962705000,12.215704833984375,0.34594598412513733,0.4458887577056885,-0.22374187409877777
1731517661972752000,12.225751953125,0.43229159712791443,0.5891451239585876,-0.4276621341705322
1731517661982800000,12.2357998046875,0.49366334080696106,0.6748632192611694,-0.6111398339271545
1731517661992846800,12.245846923828125,0.4924687147140503,0.6588149666786194,-0.6925980448722839
1731517662002894800,12.255894775390624,0.45306509733200073,0.5338162779808044,-0.6516730189323425
1731517662012941800,12.26594189453125,0.43339890241622925,0.2948787808418274,-0.4952230751514435
